PC_Timestamp,BatteryPercent,IMU_Timestamp,Label,StepCount,Distance,Speed,AccelMagnitude,Acc_X,Acc_Y,Acc_Z,Gyro_X,Gyro_Y,Gyro_Z
2025-08-02T16:44:44.154082,0,18565,0,0,0.0,0.0,0.926,0.444,-0.501,-0.64,-1.406,3.688,1.234
2025-08-02T16:44:44.214085,0,18620,0,0,0.0,0.0,0.931,0.455,-0.509,-0.633,0.5,-2.266,-0.938
2025-08-02T16:44:44.259057,0,18670,0,0,0.0,0.0,0.925,0.461,-0.519,-0.612,1.703,-2.062,-2.0
2025-08-02T16:44:44.319025,0,18724,0,0,0.0,0.0,0.931,0.457,-0.515,-0.627,0.812,2.125,0.797
2025-08-02T16:44:44.364017,0,18770,0,0,0.0,0.0,0.933,0.454,-0.507,-0.637,-1.828,0.266,0.844
2025-08-02T16:44:44.409024,0,18820,0,0,0.0,0.0,0.92,0.453,-0.513,-0.615,-2.141,0.25,0.312
2025-08-02T16:44:44.469037,0,18871,0,0,0.0,0.0,0.926,0.454,-0.516,-0.621,-1.484,1.516,0.344
2025-08-02T16:44:44.514028,0,18924,0,0,0.0,0.0,0.927,0.452,-0.513,-0.626,-1.797,3.609,1.375
2025-08-02T16:44:44.559015,0,18970,0,0,0.0,0.0,0.929,0.452,-0.511,-0.63,-1.781,1.719,1.25
2025-08-02T16:44:44.619020,0,19020,0,0,0.0,0.0,0.925,0.449,-0.511,-0.626,-0.328,1.359,0.219
2025-08-02T16:44:44.664016,0,19070,0,0,0.0,0.0,0.923,0.452,-0.511,-0.622,0.297,1.016,-0.844
2025-08-02T16:44:44.709053,0,19124,0,0,0.0,0.0,0.931,0.456,-0.514,-0.628,0.969,2.609,-0.766
2025-08-02T16:44:44.769026,0,19170,0,0,0.0,0.0,0.926,0.452,-0.511,-0.626,1.438,1.984,-1.078
2025-08-02T16:44:44.814001,0,19221,0,0,0.0,0.0,0.928,0.456,-0.515,-0.623,0.891,1.031,-0.828
2025-08-02T16:44:44.858980,0,19274,0,0,0.0,0.0,0.927,0.455,-0.515,-0.622,0.328,1.922,-1.406
2025-08-02T16:44:44.903974,0,19316,0,0,0.0,0.0,0.927,0.458,-0.518,-0.617,0.141,1.344,-0.406
2025-08-02T16:44:44.964016,0,19370,0,0,0.0,0.0,0.927,0.459,-0.514,-0.619,-0.109,2.266,-0.062
2025-08-02T16:44:45.009090,0,19420,0,0,0.0,0.0,0.927,0.456,-0.516,-0.621,-2.047,0.969,1.344
2025-08-02T16:44:45.069018,0,19473,0,0,0.0,0.0,0.919,0.452,-0.514,-0.613,-1.391,2.156,1.688
2025-08-02T16:44:45.113996,0,19520,0,0,0.0,0.0,0.925,0.455,-0.517,-0.618,-1.531,2.781,1.812
2025-08-02T16:44:45.158982,0,19570,0,0,0.0,0.0,0.927,0.458,-0.516,-0.618,-1.078,2.859,0.375
2025-08-02T16:44:45.219815,0,19621,0,0,0.0,0.0,0.924,0.457,-0.513,-0.618,-1.188,3.078,0.625
2025-08-02T16:44:45.263976,0,19670,0,0,0.0,0.0,0.925,0.453,-0.517,-0.619,-0.812,3.031,0.312
2025-08-02T16:44:45.308954,0,19720,0,0,0.0,0.0,0.927,0.459,-0.518,-0.616,-0.828,1.281,-0.312
2025-08-02T16:44:45.383992,0,19770,0,0,0.0,0.0,0.928,0.46,-0.52,-0.616,-0.328,0.688,-0.641
2025-08-02T16:44:45.413998,0,19820,0,0,0.0,0.0,0.923,0.459,-0.517,-0.612,-0.938,3.422,0.562
2025-08-02T16:44:45.473992,0,19873,0,0,0.0,0.0,0.926,0.456,-0.514,-0.621,-2.953,3.047,1.609
2025-08-02T16:44:45.519002,0,19920,0,0,0.0,0.0,0.928,0.46,-0.516,-0.619,-3.469,0.828,0.938
2025-08-02T16:44:45.578988,0,19971,0,0,0.0,0.0,0.92,0.456,-0.519,-0.608,-2.5,0.719,0.219
2025-08-02T16:44:45.608994,0,20020,0,0,0.0,0.0,0.933,0.463,-0.518,-0.623,-2.906,1.578,1.297
2025-08-02T16:44:45.669013,0,20070,0,0,0.0,0.0,0.925,0.457,-0.509,-0.623,-2.891,0.281,0.391
2025-08-02T16:44:45.714033,0,20125,0,0,0.0,0.0,0.922,0.456,-0.517,-0.612,-2.75,0.281,-0.469
2025-08-02T16:44:45.759014,0,20175,0,0,0.0,0.0,0.929,0.459,-0.52,-0.617,-2.109,1.578,-0.422
2025-08-02T16:44:45.818998,0,20220,0,0,0.0,0.0,0.925,0.455,-0.513,-0.621,-3.141,1.141,0.562
2025-08-02T16:44:45.863986,0,20270,0,0,0.0,0.0,0.926,0.455,-0.513,-0.622,-3.469,1.484,0.938
2025-08-02T16:44:45.909020,0,20320,0,0,0.0,0.0,0.925,0.455,-0.512,-0.621,-3.469,-0.219,0.531
2025-08-02T16:44:45.969011,0,20370,0,0,0.0,0.0,0.926,0.455,-0.514,-0.622,-2.812,1.578,0.562
2025-08-02T16:44:46.014024,0,20420,0,0,0.0,0.0,0.927,0.457,-0.519,-0.618,-2.156,0.891,0.219
2025-08-02T16:44:46.058999,0,20471,0,0,0.0,0.0,0.927,0.457,-0.512,-0.624,-1.484,1.531,0.188
2025-08-02T16:44:46.118996,0,20525,0,0,0.0,0.0,0.928,0.458,-0.516,-0.62,-2.844,1.547,0.391
2025-08-02T16:44:46.163995,0,20566,0,0,0.0,0.0,0.927,0.456,-0.515,-0.621,-2.547,0.859,0.656
2025-08-02T16:44:46.208995,0,20620,0,0,0.0,0.0,0.919,0.455,-0.511,-0.614,-3.484,2.266,0.781
2025-08-02T16:44:46.269039,0,20671,0,0,0.0,0.0,0.936,0.458,-0.518,-0.63,-3.281,-0.062,1.062
2025-08-02T16:44:46.314021,0,20720,0,0,0.0,0.0,0.921,0.455,-0.508,-0.619,-2.703,-0.859,0.891
2025-08-02T16:44:46.373989,0,20770,0,0,0.0,0.0,0.92,0.454,-0.512,-0.615,-2.172,1.922,0.234
2025-08-02T16:44:46.418988,0,20820,0,0,0.0,0.0,0.932,0.46,-0.515,-0.626,-2.609,2.141,0.219
2025-08-02T16:44:46.479000,0,20871,0,0,0.0,0.0,0.924,0.452,-0.511,-0.623,-1.859,0.766,0.609
2025-08-02T16:44:46.509008,0,20925,0,0,0.0,0.0,0.926,0.457,-0.511,-0.623,-2.391,0.531,0.438
2025-08-02T16:44:46.584171,0,20970,0,0,0.0,0.0,0.922,0.453,-0.511,-0.619,-1.547,1.125,-0.375
2025-08-02T16:44:46.614082,0,21020,0,0,0.0,0.0,0.926,0.454,-0.514,-0.623,-0.844,1.078,-0.016
2025-08-02T16:44:46.658999,0,21070,0,0,0.0,0.0,0.925,0.458,-0.511,-0.62,-2.359,1.672,0.156
2025-08-02T16:44:46.719013,0,21120,0,0,0.0,0.0,0.924,0.453,-0.513,-0.62,-1.641,1.25,0.016
2025-08-02T16:44:46.764005,0,21170,0,0,0.0,0.0,0.925,0.456,-0.513,-0.62,-1.219,1.281,0.234
2025-08-02T16:44:46.809023,0,21221,0,0,0.0,0.0,0.927,0.456,-0.513,-0.624,-2.016,1.281,0.234
2025-08-02T16:44:46.869014,0,21275,0,0,0.0,0.0,0.923,0.458,-0.51,-0.618,-2.125,1.672,0.719
2025-08-02T16:44:46.929006,0,21316,0,0,0.0,0.0,0.931,0.458,-0.518,-0.624,-2.391,1.859,1.312
2025-08-02T16:44:46.959021,0,21370,0,0,0.0,0.0,0.926,0.453,-0.508,-0.628,-1.266,0.984,-0.281
2025-08-02T16:44:47.019057,0,21420,0,0,0.0,0.0,0.925,0.458,-0.512,-0.619,-0.906,0.062,-1.594
2025-08-02T16:44:47.064029,0,21475,0,0,0.0,0.0,0.928,0.465,-0.518,-0.613,-0.953,0.672,-0.094
2025-08-02T16:44:47.109210,0,21520,0,0,0.0,0.0,0.925,0.456,-0.519,-0.615,-0.875,3.844,1.188
2025-08-02T16:44:47.169024,0,21570,0,0,0.0,0.0,0.934,0.455,-0.507,-0.639,-2.625,3.359,1.219
2025-08-02T16:44:47.214138,0,21621,0,0,0.0,0.0,0.923,0.461,-0.508,-0.617,-1.828,-1.281,-0.922
2025-08-02T16:44:47.259029,0,21670,0,0,0.0,0.0,0.917,0.468,-0.506,-0.605,-1.422,5.688,-2.625
2025-08-02T16:44:47.319023,0,21720,0,0,0.0,0.0,0.929,0.459,-0.526,-0.614,-3.25,3.625,1.438
2025-08-02T16:44:47.364005,0,21770,0,0,0.0,0.0,0.926,0.451,-0.501,-0.635,-4.297,3.812,2.219
2025-08-02T16:44:47.409011,0,21820,0,0,0.0,0.0,0.929,0.456,-0.504,-0.633,-4.094,0.547,0.141
2025-08-02T16:44:47.469197,0,21875,0,0,0.0,0.0,0.918,0.462,-0.514,-0.603,-2.797,-0.844,-1.781
2025-08-02T16:44:47.514035,0,21920,0,0,0.0,0.0,0.93,0.466,-0.505,-0.627,-2.812,0.422,-2.422
2025-08-02T16:44:47.559032,0,21971,0,0,0.0,0.0,0.907,0.455,-0.508,-0.597,-7.547,-2.656,0.344
2025-08-02T16:44:47.619029,0,22020,0,0,0.0,0.0,0.933,0.465,-0.511,-0.627,-10.75,6.422,2.766
2025-08-02T16:44:47.664028,0,22070,0,0,0.0,0.0,0.964,0.466,-0.504,-0.677,-12.094,9.281,6.562
2025-08-02T16:44:47.724129,0,22125,0,0,0.0,0.0,0.938,0.47,-0.487,-0.649,-0.859,-1.172,3.547
2025-08-02T16:44:47.769065,0,22175,0,0,0.0,0.0,0.927,0.464,-0.492,-0.634,8.312,-2.719,-3.734
2025-08-02T16:44:47.814062,0,22220,0,0,0.0,0.0,0.922,0.464,-0.506,-0.616,9.594,-4.734,-6.875
2025-08-02T16:44:47.859034,0,22270,0,0,0.0,0.0,0.925,0.47,-0.508,-0.614,6.391,-1.375,-8.312
2025-08-02T16:44:47.919032,0,22320,0,0,0.0,0.0,0.916,0.475,-0.519,-0.587,-2.203,1.672,-3.328
2025-08-02T16:44:47.964003,0,22370,0,0,0.0,0.0,0.938,0.473,-0.53,-0.613,-9.109,4.938,4.469
2025-08-02T16:44:48.009018,0,22420,0,0,0.0,0.0,0.938,0.458,-0.511,-0.64,-7.844,3.234,9.078
2025-08-02T16:44:48.069012,0,22470,0,0,0.0,0.0,0.924,0.45,-0.495,-0.637,-5.016,0.875,8.484
2025-08-02T16:44:48.114024,0,22525,0,0,0.0,0.0,0.916,0.455,-0.501,-0.618,0.312,-2.719,0.562
2025-08-02T16:44:48.159034,0,22570,0,0,0.0,0.0,0.922,0.462,-0.502,-0.62,0.938,-2.141,-2.453
2025-08-02T16:44:48.219142,0,22620,0,0,0.0,0.0,0.93,0.47,-0.517,-0.615,-1.547,-0.641,-0.828
2025-08-02T16:44:48.264012,0,22671,0,0,0.0,0.0,0.92,0.444,-0.505,-0.628,-3.5,8.188,2.375
2025-08-02T16:44:48.309027,0,22720,0,0,0.0,0.0,0.929,0.445,-0.496,-0.647,-2.344,3.891,1.312
2025-08-02T16:44:48.369066,0,22770,0,0,0.0,0.0,0.933,0.461,-0.507,-0.633,3.406,-2.828,-3.109
2025-08-02T16:44:48.414043,0,22820,0,0,0.0,0.0,0.929,0.477,-0.53,-0.595,6.531,-5.109,-5.172
2025-08-02T16:44:48.459002,0,22871,0,0,0.0,0.0,0.911,0.453,-0.515,-0.6,1.078,5.594,0.047
2025-08-02T16:44:48.519047,0,22925,0,0,0.0,0.0,0.933,0.456,-0.498,-0.645,-8.656,7.406,4.547
2025-08-02T16:44:48.564018,0,22970,0,0,0.0,0.0,0.933,0.47,-0.509,-0.625,-9.156,1.891,2.828
2025-08-02T16:44:48.609028,0,23020,0,0,0.0,0.0,0.921,0.466,-0.512,-0.608,-5.594,1.844,0.328
2025-08-02T16:44:48.669027,0,23070,0,0,0.0,0.0,0.93,0.459,-0.507,-0.63,0.469,2.922,-1.594
2025-08-02T16:44:48.714108,0,23120,0,0,0.0,0.0,0.93,0.458,-0.507,-0.631,0.609,0.062,-2.047
2025-08-02T16:44:48.759044,0,23170,0,0,0.0,0.0,0.927,0.461,-0.513,-0.62,-2.797,-0.719,0.0
2025-08-02T16:44:48.819000,0,23221,0,0,0.0,0.0,0.936,0.467,-0.518,-0.624,-2.047,1.266,0.266
2025-08-02T16:44:48.864033,0,23275,0,0,0.0,0.0,0.926,0.463,-0.505,-0.624,-1.781,-0.375,0.484
2025-08-02T16:44:48.909153,0,23316,0,0,0.0,0.0,0.922,0.46,-0.506,-0.618,-0.531,-0.016,-0.062
2025-08-02T16:44:48.969006,0,23370,0,0,0.0,0.0,0.93,0.465,-0.506,-0.626,-1.297,1.188,0.406
2025-08-02T16:44:49.014046,0,23421,0,0,0.0,0.0,0.927,0.462,-0.508,-0.624,-3.453,-0.188,1.359
2025-08-02T16:44:49.058998,0,23470,0,0,0.0,0.0,0.925,0.463,-0.507,-0.619,-2.234,0.781,1.062
2025-08-02T16:44:49.119071,0,23520,0,0,0.0,0.0,0.929,0.462,-0.51,-0.625,0.047,1.031,0.062
2025-08-02T16:44:49.164080,0,23570,0,0,0.0,0.0,0.926,0.457,-0.507,-0.626,1.391,1.078,-1.703
2025-08-02T16:44:49.209102,0,23621,0,0,0.0,0.0,0.925,0.459,-0.509,-0.621,0.906,0.266,-0.969
2025-08-02T16:44:49.269067,0,23675,0,0,0.0,0.0,0.93,0.468,-0.515,-0.616,0.875,1.062,-0.328
2025-08-02T16:44:49.314048,0,23720,0,0,0.0,0.0,0.925,0.466,-0.51,-0.615,0.75,0.984,0.125
2025-08-02T16:44:49.359040,0,23770,0,0,0.0,0.0,0.925,0.466,-0.507,-0.617,-0.422,1.141,0.047
2025-08-02T16:44:49.419058,0,23820,0,0,0.0,0.0,0.927,0.464,-0.512,-0.617,-1.844,1.5,-0.062
2025-08-02T16:44:49.464029,0,23870,0,0,0.0,0.0,0.932,0.462,-0.513,-0.626,-1.688,2.188,1.344
2025-08-02T16:44:49.509082,0,23920,0,0,0.0,0.0,0.922,0.46,-0.505,-0.619,-2.062,-1.062,1.062
2025-08-02T16:44:49.569046,0,23971,0,0,0.0,0.0,0.923,0.458,-0.512,-0.616,0.0,1.875,-0.688
2025-08-02T16:44:49.614032,0,24025,0,0,0.0,0.0,0.929,0.464,-0.516,-0.618,1.078,1.984,-0.5
2025-08-02T16:44:49.659039,0,24066,0,0,0.0,0.0,0.923,0.464,-0.509,-0.615,0.734,1.562,-0.422
2025-08-02T16:44:49.719145,0,24120,0,0,0.0,0.0,0.931,0.47,-0.514,-0.617,1.062,1.344,-0.281
2025-08-02T16:44:49.764111,0,24170,0,0,0.0,0.0,0.925,0.465,-0.513,-0.614,-0.484,2.297,-1.172
2025-08-02T16:44:49.809067,0,24225,0,0,0.0,0.0,0.929,0.469,-0.517,-0.613,0.25,2.531,-0.969
2025-08-02T16:44:49.869060,0,24270,0,0,0.0,0.0,0.926,0.467,-0.515,-0.611,-1.328,2.484,0.266
2025-08-02T16:44:49.914042,0,24320,0,0,0.0,0.0,0.928,0.468,-0.514,-0.615,-2.703,3.031,0.859
2025-08-02T16:44:49.959046,0,24371,0,0,0.0,0.0,0.93,0.468,-0.512,-0.619,-2.391,3.812,0.688
2025-08-02T16:44:50.019070,0,24420,0,0,0.0,0.0,0.921,0.469,-0.512,-0.606,-1.562,2.391,-0.766
2025-08-02T16:44:50.064070,0,24470,0,0,0.0,0.0,0.924,0.465,-0.516,-0.61,-1.391,1.719,-0.719
2025-08-02T16:44:50.109115,0,24520,0,0,0.0,0.0,0.935,0.47,-0.518,-0.62,-2.0,2.984,0.062
2025-08-02T16:44:50.169055,0,24570,0,0,0.0,0.0,0.924,0.469,-0.509,-0.612,-2.594,0.875,0.031
2025-08-02T16:44:50.214068,0,24624,0,0,0.0,0.0,0.922,0.47,-0.512,-0.607,-2.609,1.078,0.406
2025-08-02T16:44:50.259053,0,24670,0,0,0.0,0.0,0.932,0.472,-0.516,-0.615,-2.422,2.109,0.312
2025-08-02T16:44:50.319050,0,24721,0,0,0.0,0.0,0.929,0.473,-0.509,-0.616,-2.812,1.375,0.844
2025-08-02T16:44:50.364071,0,24770,0,0,0.0,0.0,0.925,0.468,-0.509,-0.614,-3.562,0.766,1.484
2025-08-02T16:44:50.409064,0,24820,0,0,0.0,0.0,0.926,0.463,-0.515,-0.615,-2.938,0.328,1.391
2025-08-02T16:44:50.469036,0,24873,0,0,0.0,0.0,0.923,0.469,-0.512,-0.609,-2.797,0.391,1.469
2025-08-02T16:44:50.514060,0,24925,0,0,0.0,0.0,0.928,0.466,-0.511,-0.619,-2.875,0.734,1.453
2025-08-02T16:44:50.559029,0,24970,0,0,0.0,0.0,0.925,0.464,-0.511,-0.616,-2.922,0.062,1.766
2025-08-02T16:44:50.619136,0,25020,0,0,0.0,0.0,0.93,0.465,-0.517,-0.617,-2.219,-0.375,1.781
2025-08-02T16:44:50.664041,0,25070,0,0,0.0,0.0,0.928,0.464,-0.511,-0.62,-2.328,0.844,0.906
2025-08-02T16:44:50.709178,0,25120,0,0,0.0,0.0,0.92,0.466,-0.509,-0.609,-1.984,1.297,0.406
2025-08-02T16:44:50.769187,0,25170,0,0,0.0,0.0,0.934,0.466,-0.516,-0.624,-2.078,-0.875,0.328
2025-08-02T16:44:50.814092,0,25220,0,0,0.0,0.0,0.93,0.463,-0.514,-0.621,-2.094,0.359,-0.5
2025-08-02T16:44:50.859053,0,25275,0,0,0.0,0.0,0.919,0.463,-0.511,-0.608,-2.469,2.031,0.266
2025-08-02T16:44:50.904074,0,25319,0,0,0.0,0.0,0.93,0.465,-0.514,-0.62,-3.703,2.141,0.766
2025-08-02T16:44:50.964036,0,25370,0,0,0.0,0.0,0.929,0.465,-0.511,-0.622,-3.266,2.156,1.328
2025-08-02T16:44:51.009069,0,25421,0,0,0.0,0.0,0.925,0.462,-0.511,-0.617,-3.453,0.797,0.094
2025-08-02T16:44:51.069065,0,25470,0,0,0.0,0.0,0.924,0.461,-0.511,-0.616,-3.219,0.141,0.125
2025-08-02T16:44:51.114086,0,25520,0,0,0.0,0.0,0.929,0.469,-0.51,-0.618,-2.891,1.391,0.312
2025-08-02T16:44:51.159107,0,25570,0,0,0.0,0.0,0.928,0.466,-0.511,-0.619,-2.922,1.438,0.547
2025-08-02T16:44:51.219062,0,25621,0,0,0.0,0.0,0.927,0.463,-0.511,-0.619,-2.234,1.234,0.156
2025-08-02T16:44:51.264051,0,25675,0,0,0.0,0.0,0.927,0.468,-0.51,-0.618,-2.469,1.344,0.578
2025-08-02T16:44:51.309090,0,25720,0,0,0.0,0.0,0.93,0.465,-0.514,-0.62,-2.359,0.891,1.156
2025-08-02T16:44:51.369071,0,25770,0,0,0.0,0.0,0.927,0.469,-0.504,-0.621,-3.328,1.484,1.234
2025-08-02T16:44:51.414052,0,25820,0,0,0.0,0.0,0.931,0.467,-0.509,-0.624,-2.703,0.641,2.156
2025-08-02T16:44:51.459175,0,25870,0,0,0.0,0.0,0.922,0.464,-0.506,-0.615,-2.703,-0.266,0.203
2025-08-02T16:44:51.519062,0,25920,0,0,0.0,0.0,0.932,0.467,-0.511,-0.623,-0.953,1.812,0.047
2025-08-02T16:44:51.564097,0,25971,0,0,0.0,0.0,0.929,0.461,-0.507,-0.628,-1.891,1.781,0.641
2025-08-02T16:44:51.624083,0,26025,0,0,0.0,0.0,0.925,0.464,-0.509,-0.618,-1.344,1.016,-0.156
2025-08-02T16:44:51.654079,0,26066,0,0,0.0,0.0,0.927,0.466,-0.511,-0.617,-1.078,0.344,-0.719
2025-08-02T16:44:51.714068,0,26120,0,0,0.0,0.0,0.926,0.464,-0.511,-0.618,-1.391,0.812,0.453
2025-08-02T16:44:51.759067,0,26170,0,0,0.0,0.0,0.926,0.46,-0.511,-0.62,-2.938,1.438,0.875
2025-08-02T16:44:51.819061,0,26225,0,0,0.0,0.0,0.926,0.462,-0.505,-0.623,-3.766,1.875,1.141
2025-08-02T16:44:51.864057,0,26270,0,0,0.0,0.0,0.925,0.461,-0.505,-0.624,-3.75,1.359,1.594
2025-08-02T16:44:51.909077,0,26320,0,0,0.0,0.0,0.927,0.464,-0.506,-0.624,-3.031,0.844,0.75
2025-08-02T16:44:51.969068,0,26371,0,0,0.0,0.0,0.923,0.461,-0.507,-0.617,-3.984,1.328,0.188
2025-08-02T16:44:52.014063,0,26425,0,0,0.0,0.0,0.931,0.462,-0.509,-0.627,-2.516,0.656,1.453
2025-08-02T16:44:52.059061,0,26470,0,0,0.0,0.0,0.927,0.463,-0.506,-0.624,-2.406,0.406,0.062
2025-08-02T16:44:52.119393,0,26520,0,0,0.0,0.0,0.923,0.463,-0.506,-0.618,-3.359,0.219,-1.125
2025-08-02T16:44:52.164331,0,26570,0,0,0.0,0.0,0.926,0.469,-0.512,-0.613,-3.031,2.625,0.078
2025-08-02T16:44:52.224175,0,26625,0,0,0.0,0.0,0.936,0.467,-0.509,-0.632,-3.188,6.359,3.547
2025-08-02T16:44:52.269105,0,26670,0,0,0.0,0.0,0.93,0.451,-0.492,-0.647,-2.203,3.906,4.469
2025-08-02T16:44:52.314054,0,26721,0,0,0.0,0.0,0.922,0.461,-0.491,-0.629,0.203,-3.406,-2.562
2025-08-02T16:44:52.374111,0,26775,0,0,0.0,0.0,0.925,0.478,-0.517,-0.6,2.266,-4.297,-6.031
2025-08-02T16:44:52.404052,0,26816,0,0,0.0,0.0,0.915,0.458,-0.529,-0.589,1.5,-4.0,2.203
2025-08-02T16:44:52.464084,0,26870,0,0,0.0,0.0,0.927,0.451,-0.505,-0.633,-5.203,9.703,6.422
2025-08-02T16:44:52.509100,0,26920,0,0,0.0,0.0,0.933,0.448,-0.479,-0.664,-11.375,2.453,7.141
2025-08-02T16:44:52.569214,0,26975,0,0,0.0,0.0,0.938,0.477,-0.51,-0.625,-3.016,-6.781,-3.609
2025-08-02T16:44:52.614481,0,27020,0,0,0.0,0.0,0.911,0.47,-0.515,-0.586,-1.234,-4.938,-5.672
2025-08-02T16:44:52.659236,0,27070,0,0,0.0,0.0,0.918,0.472,-0.534,-0.579,-1.844,0.75,4.094
2025-08-02T16:44:52.719268,0,27121,0,0,0.0,0.0,0.94,0.447,-0.498,-0.66,-8.547,13.469,10.391
2025-08-02T16:44:52.764130,0,27170,0,0,0.0,0.0,0.938,0.439,-0.462,-0.687,-12.375,5.875,5.781
2025-08-02T16:44:52.809237,0,27220,0,0,0.0,0.0,0.923,0.469,-0.5,-0.619,-3.297,-11.578,-4.922
2025-08-02T16:44:52.869534,0,27270,0,0,0.0,0.0,0.914,0.473,-0.518,-0.585,-0.672,-7.219,-9.312
2025-08-02T16:44:52.914234,0,27320,0,0,0.0,0.0,0.931,0.502,-0.517,-0.59,-5.844,3.844,-1.5
2025-08-02T16:44:52.959275,0,27374,0,0,0.0,0.0,0.936,0.46,-0.5,-0.644,-14.875,14.75,9.234
2025-08-02T16:44:53.019252,0,27420,0,0,0.0,0.0,0.905,0.404,-0.467,-0.662,-12.375,9.188,20.5
2025-08-02T16:44:53.064098,0,27471,0,0,0.0,0.0,0.952,0.461,-0.468,-0.689,-5.422,-0.125,4.094
2025-08-02T16:44:53.109155,0,27520,0,0,0.0,0.0,0.912,0.459,-0.499,-0.61,6.656,-9.922,-6.109
2025-08-02T16:44:53.169172,0,27570,0,0,0.0,0.0,0.921,0.49,-0.502,-0.597,7.531,-2.766,-9.531
2025-08-02T16:44:53.214212,0,27625,0,0,0.0,0.0,0.939,0.493,-0.513,-0.613,-1.062,-0.094,-3.016
2025-08-02T16:44:53.274110,0,27674,0,0,0.0,0.0,0.919,0.464,-0.5,-0.616,-16.0,8.141,4.062
2025-08-02T16:44:53.319197,0,27720,0,0,0.0,0.0,0.932,0.451,-0.487,-0.654,-17.422,9.234,12.406
2025-08-02T16:44:53.364123,0,27770,0,0,0.0,0.0,0.959,0.447,-0.477,-0.702,-10.406,9.297,8.719
2025-08-02T16:44:53.409100,0,27820,0,0,0.0,0.0,0.921,0.452,-0.475,-0.647,2.406,-9.891,-2.266
2025-08-02T16:44:53.469233,0,27870,0,0,0.0,0.0,0.911,0.459,-0.5,-0.607,10.156,-4.031,-8.656
2025-08-02T16:44:53.514064,0,27920,0,0,0.0,0.0,0.931,0.494,-0.505,-0.607,5.75,0.547,-3.969
2025-08-02T16:44:53.559147,0,27971,0,0,0.0,0.0,0.925,0.459,-0.485,-0.64,-4.5,10.547,3.734
2025-08-02T16:44:53.619077,0,28025,0,0,0.0,0.0,0.946,0.453,-0.472,-0.683,-9.516,5.031,6.312
2025-08-02T16:44:53.664245,0,28066,0,0,0.0,0.0,0.93,0.456,-0.479,-0.654,-4.594,-4.797,-1.25
2025-08-02T16:44:53.709128,0,28120,0,0,0.0,0.0,0.93,0.479,-0.513,-0.61,4.047,-7.625,-5.906
2025-08-02T16:44:53.769125,0,28171,0,0,0.0,0.0,0.91,0.468,-0.507,-0.594,4.453,5.344,0.156
2025-08-02T16:44:53.814108,0,28220,0,0,0.0,0.0,0.95,0.451,-0.48,-0.685,-0.984,8.734,5.516
2025-08-02T16:44:53.859132,0,28270,0,0,0.0,0.0,0.93,0.453,-0.468,-0.663,-4.359,-4.25,1.141
2025-08-02T16:44:53.919241,0,28320,0,0,0.0,0.0,0.921,0.47,-0.503,-0.612,-1.438,-8.328,-4.641
2025-08-02T16:44:53.964111,0,28371,0,0,0.0,0.0,0.919,0.485,-0.513,-0.588,2.078,1.594,-2.828
2025-08-02T16:44:54.024174,0,28424,0,0,0.0,0.0,0.932,0.453,-0.486,-0.653,-2.094,13.938,2.594
2025-08-02T16:44:54.069172,0,28470,0,0,0.0,0.0,0.951,0.45,-0.471,-0.693,-6.297,5.141,4.984
2025-08-02T16:44:54.114246,0,28520,0,0,0.0,0.0,0.928,0.457,-0.49,-0.642,-2.422,-6.734,-2.328
2025-08-02T16:44:54.159136,0,28570,0,0,0.0,0.0,0.918,0.473,-0.508,-0.6,2.906,-4.031,-5.547
2025-08-02T16:44:54.219124,0,28620,0,0,0.0,0.0,0.924,0.486,-0.516,-0.593,2.484,2.688,-0.859
2025-08-02T16:44:54.264151,0,28670,0,0,0.0,0.0,0.933,0.456,-0.483,-0.655,-2.188,12.484,4.344
2025-08-02T16:44:54.309154,0,28721,0,0,0.0,0.0,0.945,0.455,-0.472,-0.681,-5.75,1.156,2.891
2025-08-02T16:44:54.369242,0,28774,0,0,0.0,0.0,0.929,0.475,-0.497,-0.624,-0.484,-7.922,-2.797
2025-08-02T16:44:54.414124,0,28816,0,0,0.0,0.0,0.914,0.479,-0.511,-0.587,2.891,-1.5,-3.328
2025-08-02T16:44:54.459139,0,28870,0,0,0.0,0.0,0.937,0.472,-0.491,-0.643,0.922,7.438,1.656
2025-08-02T16:44:54.519537,0,28920,0,0,0.0,0.0,0.935,0.464,-0.483,-0.652,-4.016,0.703,1.609
2025-08-02T16:44:54.564146,0,28974,0,0,0.0,0.0,0.926,0.47,-0.509,-0.614,-4.297,-2.391,0.312
2025-08-02T16:44:54.609149,0,29020,0,0,0.0,0.0,0.923,0.469,-0.502,-0.617,-2.641,6.938,3.391
2025-08-02T16:44:54.669165,0,29070,0,0,0.0,0.0,0.937,0.462,-0.48,-0.659,-2.109,2.453,4.0
2025-08-02T16:44:54.714141,0,29121,0,0,0.0,0.0,0.92,0.457,-0.483,-0.636,1.266,-2.438,-1.531
2025-08-02T16:44:54.759134,0,29170,0,0,0.0,0.0,0.93,0.475,-0.506,-0.62,0.5,-1.203,-1.984
2025-08-02T16:44:54.819084,0,29220,0,0,0.0,0.0,0.929,0.469,-0.496,-0.631,-2.172,2.219,0.547
2025-08-02T16:44:54.864123,0,29270,0,0,0.0,0.0,0.932,0.466,-0.492,-0.641,-1.375,-1.078,2.688
2025-08-02T16:44:54.909228,0,29320,0,0,0.0,0.0,0.923,0.462,-0.488,-0.633,-1.359,-5.344,-1.609
2025-08-02T16:44:54.969234,0,29374,0,0,0.0,0.0,0.912,0.469,-0.501,-0.601,-1.5,-0.531,-3.891
2025-08-02T16:44:55.014112,0,29420,0,0,0.0,0.0,0.941,0.489,-0.506,-0.625,1.859,12.453,-1.812
2025-08-02T16:44:55.059101,0,29471,0,0,0.0,0.0,0.941,0.456,-0.484,-0.666,-2.531,5.906,4.359
2025-08-02T16:44:55.119122,0,29520,0,0,0.0,0.0,0.918,0.448,-0.487,-0.637,1.875,-2.906,-1.125
2025-08-02T16:44:55.164190,0,29570,0,0,0.0,0.0,0.918,0.463,-0.505,-0.611,0.359,-5.812,-5.562
2025-08-02T16:44:55.224326,0,29625,0,0,0.0,0.0,0.928,0.485,-0.51,-0.605,-3.859,-2.484,-3.359
2025-08-02T16:44:55.269175,0,29674,0,0,0.0,0.0,0.916,0.468,-0.508,-0.602,-10.0,7.906,4.156
2025-08-02T16:44:55.314248,0,29720,0,0,0.0,0.0,0.946,0.459,-0.485,-0.67,-12.875,9.859,10.203
2025-08-02T16:44:55.359113,0,29770,0,0,0.0,0.0,0.939,0.444,-0.483,-0.673,-8.609,0.562,6.328
2025-08-02T16:44:55.419130,0,29821,0,0,0.0,0.0,0.919,0.466,-0.483,-0.627,2.0,-7.109,-3.344
2025-08-02T16:44:55.464156,0,29870,0,0,0.0,0.0,0.931,0.48,-0.508,-0.615,7.812,-0.203,-8.703
2025-08-02T16:44:55.509139,0,29920,0,0,0.0,0.0,0.913,0.46,-0.494,-0.615,4.219,2.156,-2.156
2025-08-02T16:44:55.569117,0,29970,0,0,0.0,0.0,0.942,0.468,-0.487,-0.657,-2.688,9.188,1.281
2025-08-02T16:44:55.614229,0,30024,0,0,0.0,0.0,0.922,0.463,-0.483,-0.634,-4.312,-2.609,-1.719
2025-08-02T16:44:55.659127,0,30069,0,0,0.0,0.0,0.923,0.474,-0.508,-0.608,1.0,-5.172,-3.766
2025-08-02T16:44:55.719225,0,30120,0,0,0.0,0.0,0.94,0.489,-0.507,-0.623,2.828,4.641,-1.016
2025-08-02T16:44:55.764141,0,30171,0,0,0.0,0.0,0.935,0.469,-0.485,-0.647,-2.703,5.203,3.25
2025-08-02T16:44:55.809114,0,30220,0,0,0.0,0.0,0.932,0.46,-0.495,-0.642,-5.312,1.953,3.234
2025-08-02T16:44:55.869121,0,30270,0,0,0.0,0.0,0.928,0.471,-0.49,-0.633,-3.672,0.969,2.109
2025-08-02T16:44:55.914127,0,30320,0,0,0.0,0.0,0.931,0.467,-0.49,-0.64,-1.312,-0.281,0.328
2025-08-02T16:44:55.959254,0,30371,0,0,0.0,0.0,0.929,0.469,-0.49,-0.635,-0.609,-1.312,-0.797
2025-08-02T16:44:56.019115,0,30424,0,0,0.0,0.0,0.929,0.471,-0.502,-0.623,-2.906,0.688,0.328
2025-08-02T16:44:56.064136,0,30470,0,0,0.0,0.0,0.915,0.457,-0.496,-0.618,-5.203,4.766,2.719
2025-08-02T16:44:56.109122,0,30520,0,0,0.0,0.0,0.938,0.461,-0.495,-0.649,-4.234,5.172,4.5
2025-08-02T16:44:56.169132,0,30570,0,0,0.0,0.0,0.929,0.463,-0.489,-0.64,-1.062,2.141,1.828
2025-08-02T16:44:56.214132,0,30620,0,0,0.0,0.0,0.935,0.463,-0.491,-0.647,2.875,-0.469,-0.781
2025-08-02T16:44:56.259138,0,30670,0,0,0.0,0.0,0.927,0.469,-0.495,-0.629,3.203,-2.031,-2.188
2025-08-02T16:44:56.319134,0,30721,0,0,0.0,0.0,0.93,0.478,-0.505,-0.618,2.094,-0.234,-1.031
2025-08-02T16:44:56.364115,0,30774,0,0,0.0,0.0,0.921,0.467,-0.497,-0.619,-1.984,2.891,1.188
2025-08-02T16:44:56.409131,0,30816,0,0,0.0,0.0,0.927,0.463,-0.495,-0.633,-3.609,5.219,4.0
2025-08-02T16:44:56.469122,0,30870,0,0,0.0,0.0,0.935,0.461,-0.49,-0.649,-4.312,2.312,2.578
2025-08-02T16:44:56.514133,0,30921,0,0,0.0,0.0,0.926,0.469,-0.495,-0.627,-0.047,-1.641,0.953
2025-08-02T16:44:56.559152,0,30970,0,0,0.0,0.0,0.929,0.467,-0.503,-0.626,2.531,-2.5,-1.062
2025-08-02T16:44:56.619113,0,31020,0,0,0.0,0.0,0.921,0.462,-0.499,-0.622,1.906,0.375,-0.906
2025-08-02T16:44:56.664144,0,31070,0,0,0.0,0.0,0.933,0.468,-0.499,-0.634,-0.266,3.469,-0.781
2025-08-02T16:44:56.709245,0,31121,0,0,0.0,0.0,1.065,0.491,-0.534,-0.78,-7.203,5.672,2.531
2025-08-02T16:44:56.769321,0,31174,0,0,0.0,0.0,1.271,0.358,-0.632,-1.043,-25.797,105.891,13.969
2025-08-02T16:44:56.814313,0,31220,0,0,0.0,0.0,1.584,0.29,-0.632,-1.423,-216.859,438.109,-17.766
2025-08-02T16:44:56.874298,0,31270,0,0,0.0,0.0,1.299,0.209,0.025,-1.282,-415.125,511.984,-91.25
2025-08-02T16:44:56.919292,0,31320,0,0,0.0,0.0,0.76,0.756,0.067,0.029,-397.906,399.422,-41.812
2025-08-02T16:44:56.964295,0,31370,0,0,0.0,0.0,1.68,1.55,0.33,0.558,-281.109,318.594,-108.188
2025-08-02T16:44:57.009270,0,31420,0,0,0.0,0.0,1.524,1.365,0.631,0.242,-95.438,272.891,-322.625
2025-08-02T16:44:57.069296,0,31471,0,0,0.0,0.0,1.553,1.539,0.18,-0.105,33.469,-16.438,-323.672
2025-08-02T16:44:57.114309,0,31524,0,0,0.0,0.0,1.004,0.986,0.098,0.161,95.094,156.172,-224.016
2025-08-02T16:44:57.159299,0,31566,0,0,0.0,0.0,1.17,1.167,-0.091,0.005,177.797,58.234,-137.031
2025-08-02T16:44:57.219305,0,31620,0,0,0.0,0.0,0.686,0.59,-0.261,-0.232,219.438,-115.5,5.453
2025-08-02T16:44:57.264293,0,31670,0,0,0.0,0.0,1.091,0.14,-0.857,-0.659,184.812,64.016,197.562
2025-08-02T16:44:57.324612,0,31724,0,0,0.0,0.0,1.634,0.877,-1.373,-0.119,106.969,57.766,120.812
2025-08-02T16:44:57.369320,0,31770,0,0,0.0,0.0,1.547,1.483,0.265,-0.351,-96.344,217.75,-0.312
2025-08-02T16:44:57.414332,0,31820,0,0,0.0,0.0,2.395,2.074,0.882,-0.811,-75.797,-51.891,-136.781
2025-08-02T16:44:57.474326,0,31871,0,0,0.0,0.0,0.999,0.937,0.344,-0.044,-97.172,-56.984,-130.0
2025-08-02T16:44:57.519320,0,31920,0,0,0.0,0.0,0.648,0.644,-0.057,0.038,78.266,-152.141,-35.438
2025-08-02T16:44:57.564322,0,31970,0,0,0.0,0.0,0.434,-0.293,-0.271,0.17,92.047,-177.875,126.422
2025-08-02T16:44:57.609279,0,32020,0,0,0.0,0.0,1.342,1.286,0.084,-0.376,20.0,337.047,74.094
2025-08-02T16:44:57.669298,0,32070,0,0,0.0,0.0,1.599,1.463,0.513,-0.39,11.547,-74.703,-14.656
2025-08-02T16:44:57.714393,0,32124,0,0,0.0,0.0,1.186,1.131,0.261,-0.242,-0.547,-28.766,-20.266
2025-08-02T16:44:57.759268,0,32170,0,0,0.0,0.0,0.88,0.83,0.069,-0.284,31.906,-83.875,2.438
2025-08-02T16:44:57.819326,0,32221,0,0,0.0,0.0,1.078,1.03,0.148,-0.28,27.797,-81.484,11.078
2025-08-02T16:44:57.879301,0,32270,0,0,0.0,0.0,0.952,0.874,0.193,-0.327,26.469,-134.141,4.453
2025-08-02T16:44:57.909294,0,32320,0,0,0.0,0.0,1.047,0.94,0.009,-0.461,33.188,-33.547,-3.484
2025-08-02T16:44:57.969314,0,32375,0,0,0.0,0.0,0.88,0.734,-0.138,-0.466,46.125,-292.453,18.281
2025-08-02T16:44:58.014300,0,32424,0,0,0.0,0.0,0.822,0.659,-0.127,-0.473,52.422,-134.891,7.734
2025-08-02T16:44:58.059314,0,32470,0,0,0.0,0.0,1.056,0.806,-0.208,-0.649,42.109,-156.078,28.438
2025-08-02T16:44:58.119359,0,32520,0,0,0.0,0.0,0.893,0.578,-0.086,-0.676,30.781,-113.281,56.516
2025-08-02T16:44:58.164343,0,32571,0,0,0.0,0.0,1.05,0.832,-0.113,-0.632,57.906,-118.062,81.484
2025-08-02T16:44:58.209348,0,32620,0,0,0.0,0.0,1.071,0.831,-0.096,-0.669,101.797,-176.953,116.578
2025-08-02T16:44:58.269340,0,32670,0,0,0.0,0.0,1.061,0.755,-0.177,-0.725,154.797,-277.766,134.844
2025-08-02T16:44:58.314338,0,32720,0,0,0.0,0.0,1.088,0.654,-0.227,-0.839,190.078,-290.016,130.594
2025-08-02T16:44:58.374338,0,32774,0,0,0.0,0.0,1.112,0.578,-0.258,-0.914,201.516,-308.75,124.0
2025-08-02T16:44:58.419372,0,32819,0,0,0.0,0.0,1.092,0.394,-0.262,-0.984,176.344,-189.938,126.297
2025-08-02T16:44:58.464327,0,32870,0,0,0.0,0.0,1.096,0.561,-0.259,-0.906,135.766,-105.469,89.281
2025-08-02T16:44:58.509334,0,32921,0,0,0.0,0.0,1.008,0.354,-0.272,-0.904,107.422,-0.406,33.969
2025-08-02T16:44:58.569330,0,32970,0,0,0.0,0.0,0.895,0.301,-0.244,-0.806,89.844,110.109,-37.016
2025-08-02T16:44:58.614326,0,33020,0,0,0.0,0.0,1.019,0.259,-0.293,-0.941,68.797,139.766,-46.281
2025-08-02T16:44:58.659326,0,33070,0,0,0.0,0.0,1.022,-0.137,-0.319,-0.961,-4.656,-46.469,27.297
2025-08-02T16:44:58.719410,0,33121,0,0,0.0,0.0,0.752,0.197,-0.227,-0.689,-31.297,40.938,0.25
2025-08-02T16:44:58.764338,0,33174,0,0,0.0,0.0,0.721,0.136,-0.167,-0.688,-25.562,29.844,5.0
2025-08-02T16:44:58.809340,0,33220,0,0,0.0,0.0,0.813,0.062,-0.431,-0.687,-1.625,23.078,-1.094
2025-08-02T16:44:58.869365,0,33270,0,0,0.0,0.0,1.073,0.275,-0.743,-0.723,14.969,168.922,-23.922
2025-08-02T16:44:58.914309,0,33320,0,0,0.0,0.0,1.141,0.578,-0.638,-0.749,26.234,37.547,-27.25
2025-08-02T16:44:58.959324,0,33370,0,0,0.0,0.0,1.039,0.412,-0.659,-0.69,27.266,27.922,-30.562
2025-08-02T16:44:59.019294,0,33420,0,0,0.0,0.0,0.961,0.425,-0.539,-0.673,40.062,7.953,-22.047
2025-08-02T16:44:59.064306,0,33471,0,0,0.0,0.0,0.869,0.361,-0.501,-0.611,29.141,-5.719,-7.328
2025-08-02T16:44:59.124312,0,33524,0,0,0.0,0.0,0.94,0.424,-0.576,-0.61,24.75,12.656,-6.484
2025-08-02T16:44:59.154306,0,33566,0,0,0.0,0.0,0.989,0.436,-0.612,-0.642,11.672,17.781,-2.547
2025-08-02T16:44:59.214357,0,33620,0,0,0.0,0.0,0.918,0.419,-0.54,-0.613,-0.359,13.609,-0.094
2025-08-02T16:44:59.259181,0,33670,0,0,0.0,0.0,0.91,0.395,-0.547,-0.611,-5.109,8.0,3.625
2025-08-02T16:44:59.319209,0,33724,0,0,0.0,0.0,0.91,0.384,-0.552,-0.613,-8.953,5.938,7.438
2025-08-02T16:44:59.364217,0,33770,0,0,0.0,0.0,0.929,0.405,-0.554,-0.626,-12.703,7.016,8.641
2025-08-02T16:44:59.409216,0,33820,0,0,0.0,0.0,0.934,0.395,-0.558,-0.636,-10.797,5.047,6.25
2025-08-02T16:44:59.469195,0,33871,0,0,0.0,0.0,0.91,0.386,-0.539,-0.624,-8.422,2.719,6.172
2025-08-02T16:44:59.514197,0,33924,0,0,0.0,0.0,0.923,0.392,-0.546,-0.634,-2.078,-2.219,4.266
2025-08-02T16:44:59.559218,0,33970,0,0,0.0,0.0,0.923,0.393,-0.545,-0.633,0.516,-2.016,0.297
2025-08-02T16:44:59.619213,0,34020,0,0,0.0,0.0,0.912,0.388,-0.54,-0.623,0.953,-1.297,-1.594
2025-08-02T16:44:59.664202,0,34070,0,0,0.0,0.0,0.92,0.394,-0.545,-0.627,2.172,-1.375,-2.859
2025-08-02T16:44:59.724210,0,34124,0,0,0.0,0.0,0.918,0.397,-0.544,-0.624,-0.219,1.266,-2.266
2025-08-02T16:44:59.769225,0,34170,0,0,0.0,0.0,0.902,0.367,-0.535,-0.627,-3.953,-0.781,4.75
2025-08-02T16:44:59.814304,0,34221,0,0,0.0,0.0,0.934,0.408,-0.561,-0.626,-3.906,-0.969,-0.891
2025-08-02T16:44:59.874158,0,34274,0,0,0.0,0.0,0.918,0.395,-0.545,-0.625,-4.531,1.812,1.641
2025-08-02T16:44:59.904265,0,34316,0,0,0.0,0.0,0.921,0.396,-0.545,-0.628,-3.906,-0.047,1.734
2025-08-02T16:44:59.964211,0,34370,0,0,0.0,0.0,0.921,0.392,-0.547,-0.629,-4.172,-0.234,3.016
2025-08-02T16:45:00.009220,0,34420,0,0,0.0,0.0,0.919,0.394,-0.542,-0.629,-3.328,-1.062,2.547
2025-08-02T16:45:00.069210,0,34475,0,0,0.0,0.0,0.925,0.395,-0.54,-0.638,-3.891,-4.438,2.531
2025-08-02T16:45:00.114179,0,34520,0,0,0.0,0.0,0.913,0.381,-0.542,-0.628,-2.344,-5.891,0.859
2025-08-02T16:45:00.159189,0,34570,0,0,0.0,0.0,0.918,0.388,-0.536,-0.636,-1.812,2.125,-0.469
2025-08-02T16:45:00.219274,0,34621,0,0,0.0,0.0,0.91,0.383,-0.545,-0.62,1.031,-0.219,-1.766
2025-08-02T16:45:00.264193,0,34670,0,0,0.0,0.0,0.924,0.399,-0.548,-0.628,2.406,3.688,-2.156
2025-08-02T16:45:00.309194,0,34720,0,0,0.0,0.0,0.905,0.38,-0.534,-0.624,4.5,2.172,-4.141
2025-08-02T16:45:00.369201,0,34770,0,0,0.0,0.0,0.958,0.404,-0.562,-0.662,6.094,-6.391,-0.703
2025-08-02T16:45:00.414308,0,34820,0,0,0.0,0.0,0.889,0.384,-0.536,-0.597,-3.047,-5.469,-2.703
2025-08-02T16:45:00.474318,0,34875,0,0,0.0,0.0,0.904,0.382,-0.545,-0.613,-11.109,10.766,-4.25
2025-08-02T16:45:00.519312,0,34920,0,0,0.0,0.0,0.929,0.39,-0.554,-0.635,-20.484,12.594,0.672
2025-08-02T16:45:00.564259,0,34971,0,0,0.0,0.0,0.934,0.395,-0.543,-0.648,-18.125,7.156,3.062
2025-08-02T16:45:00.609227,0,35020,0,0,0.0,0.0,0.93,0.392,-0.529,-0.657,-12.891,5.516,2.703
2025-08-02T16:45:00.669328,0,35070,0,0,0.0,0.0,0.914,0.391,-0.523,-0.639,-2.172,-0.625,-0.141
2025-08-02T16:45:00.729364,0,35125,0,0,0.0,0.0,0.922,0.409,-0.532,-0.632,-0.844,-2.375,-1.391
2025-08-02T16:45:00.774338,0,35173,0,0,0.0,0.0,0.901,0.41,-0.522,-0.61,-10.406,4.078,-4.234
2025-08-02T16:45:00.819336,0,35220,0,0,0.0,0.0,0.907,0.395,-0.527,-0.624,-15.297,10.891,-1.359
2025-08-02T16:45:00.864205,0,35270,0,0,0.0,0.0,0.944,0.414,-0.541,-0.653,-17.047,8.5,2.859
2025-08-02T16:45:00.909338,0,35320,0,0,0.0,0.0,0.856,0.327,-0.473,-0.635,-26.75,47.312,11.609
2025-08-02T16:45:00.969387,0,35370,0,0,0.0,0.0,0.973,0.412,-0.572,-0.672,-15.641,-16.109,12.328
2025-08-02T16:45:01.014198,0,35420,0,0,0.0,0.0,0.938,0.451,-0.513,-0.643,-9.969,2.406,4.859
2025-08-02T16:45:01.059189,0,35471,0,0,0.0,0.0,0.928,0.422,-0.521,-0.642,-8.75,2.016,2.938
2025-08-02T16:45:01.119182,0,35525,0,0,0.0,0.0,0.919,0.399,-0.502,-0.659,-9.188,2.172,3.281
2025-08-02T16:45:01.164214,0,35566,0,0,0.0,0.0,0.929,0.399,-0.497,-0.676,-12.562,3.969,4.375
2025-08-02T16:45:01.209328,0,35620,0,0,0.0,0.0,0.923,0.408,-0.496,-0.662,-13.016,-2.062,4.594
2025-08-02T16:45:01.269210,0,35671,0,0,0.0,0.0,0.923,0.408,-0.502,-0.658,-11.172,2.875,2.422
2025-08-02T16:45:01.314182,0,35720,0,0,0.0,0.0,0.922,0.397,-0.495,-0.669,-8.172,1.188,1.734
2025-08-02T16:45:01.359220,0,35770,0,0,0.0,0.0,0.925,0.402,-0.495,-0.671,-7.609,0.109,2.609
2025-08-02T16:45:01.419194,0,35820,0,0,0.0,0.0,0.926,0.407,-0.491,-0.671,-8.0,2.625,3.031
2025-08-02T16:45:01.464185,0,35871,0,0,0.0,0.0,0.934,0.412,-0.495,-0.676,-7.625,2.812,5.031
2025-08-02T16:45:01.524186,0,35925,0,0,0.0,0.0,0.919,0.402,-0.483,-0.671,-5.766,3.516,4.0
2025-08-02T16:45:01.584189,0,35970,0,0,0.0,0.0,0.938,0.409,-0.492,-0.686,-2.328,0.281,4.016
2025-08-02T16:45:01.614214,0,36020,0,0,0.0,0.0,0.92,0.395,-0.491,-0.67,-3.375,-1.938,3.703
2025-08-02T16:45:01.659554,0,36070,0,0,0.0,0.0,0.923,0.403,-0.498,-0.665,-1.125,2.234,4.484
2025-08-02T16:45:01.719210,0,36120,0,0,0.0,0.0,0.926,0.398,-0.5,-0.67,-2.703,-0.391,8.406
2025-08-02T16:45:01.764171,0,36170,0,0,0.0,0.0,0.925,0.391,-0.491,-0.679,-2.391,1.281,8.969
2025-08-02T16:45:01.809161,0,36221,0,0,0.0,0.0,0.919,0.386,-0.49,-0.675,-2.812,1.891,6.906
2025-08-02T16:45:01.869210,0,36275,0,0,0.0,0.0,0.926,0.393,-0.495,-0.677,1.406,1.469,3.422
2025-08-02T16:45:01.914198,0,36316,0,0,0.0,0.0,0.92,0.39,-0.489,-0.675,2.547,0.203,1.969
2025-08-02T16:45:01.959221,0,36370,0,0,0.0,0.0,0.926,0.395,-0.496,-0.676,6.969,-3.547,-1.328
2025-08-02T16:45:02.019219,0,36420,0,0,0.0,0.0,0.921,0.388,-0.505,-0.665,7.906,-4.156,-4.109
2025-08-02T16:45:02.064200,0,36475,0,0,0.0,0.0,0.916,0.388,-0.51,-0.655,6.266,0.438,-2.719
2025-08-02T16:45:02.109206,0,36520,0,0,0.0,0.0,0.929,0.4,-0.518,-0.659,4.422,0.766,-0.719
2025-08-02T16:45:02.169257,0,36570,0,0,0.0,0.0,0.924,0.388,-0.507,-0.668,0.75,0.484,2.297
2025-08-02T16:45:02.214441,0,36621,0,0,0.0,0.0,0.922,0.391,-0.507,-0.664,-1.719,0.188,2.641
2025-08-02T16:45:02.259200,0,36670,0,0,0.0,0.0,0.92,0.388,-0.51,-0.66,-2.406,0.719,2.031
2025-08-02T16:45:02.319227,0,36720,0,0,0.0,0.0,0.922,0.393,-0.512,-0.658,-3.203,1.953,2.391
2025-08-02T16:45:02.364176,0,36770,0,0,0.0,0.0,0.922,0.39,-0.506,-0.665,-2.922,2.438,0.578
2025-08-02T16:45:02.409252,0,36820,0,0,0.0,0.0,0.921,0.386,-0.505,-0.666,-4.469,1.953,0.359
2025-08-02T16:45:02.469210,0,36875,0,0,0.0,0.0,0.925,0.392,-0.504,-0.668,-3.641,3.828,0.234
2025-08-02T16:45:02.514234,0,36920,0,0,0.0,0.0,0.875,0.34,-0.503,-0.631,-1.188,-4.828,5.734
2025-08-02T16:45:02.559228,0,36971,0,0,0.0,0.0,0.935,0.41,-0.509,-0.668,0.781,0.0,0.594
2025-08-02T16:45:02.619203,0,37020,0,0,0.0,0.0,0.933,0.4,-0.513,-0.668,3.5,-4.703,-3.703
2025-08-02T16:45:02.664220,0,37070,0,0,0.0,0.0,0.921,0.397,-0.507,-0.659,3.672,-1.594,-2.938
2025-08-02T16:45:02.724187,0,37125,0,0,0.0,0.0,0.922,0.399,-0.509,-0.657,0.391,0.906,-1.812
2025-08-02T16:45:02.769215,0,37175,0,0,0.0,0.0,0.93,0.401,-0.512,-0.665,-2.578,0.578,1.047
2025-08-02T16:45:02.814202,0,37220,0,0,0.0,0.0,0.928,0.4,-0.51,-0.663,-4.734,2.359,1.375
2025-08-02T16:45:02.859203,0,37270,0,0,0.0,0.0,0.922,0.391,-0.507,-0.664,-4.766,0.281,2.578
2025-08-02T16:45:02.919176,0,37320,0,0,0.0,0.0,0.919,0.384,-0.507,-0.663,-4.375,1.547,1.953
2025-08-02T16:45:02.964214,0,37370,0,0,0.0,0.0,0.923,0.389,-0.51,-0.664,-3.188,-0.516,2.406
2025-08-02T16:45:03.009218,0,37420,0,0,0.0,0.0,0.926,0.391,-0.513,-0.663,-1.625,-1.047,1.891
2025-08-02T16:45:03.069198,0,37470,0,0,0.0,0.0,0.914,0.383,-0.5,-0.662,-0.891,1.812,0.531
2025-08-02T16:45:03.114475,0,37525,0,0,0.0,0.0,0.922,0.393,-0.508,-0.662,0.844,0.281,-1.688
2025-08-02T16:45:03.159399,0,37570,0,0,0.0,0.0,0.921,0.387,-0.509,-0.662,1.203,0.609,-2.641
2025-08-02T16:45:03.219353,0,37620,0,0,0.0,0.0,0.918,0.389,-0.509,-0.658,0.781,1.203,-1.234
2025-08-02T16:45:03.264315,0,37671,0,0,0.0,0.0,0.928,0.389,-0.514,-0.667,1.344,0.344,-1.953
2025-08-02T16:45:03.309405,0,37720,0,0,0.0,0.0,0.92,0.393,-0.506,-0.66,-0.281,-0.578,-0.844
2025-08-02T16:45:03.369824,0,37770,0,0,0.0,0.0,0.919,0.389,-0.511,-0.658,-1.359,0.266,0.875
2025-08-02T16:45:03.414877,0,37820,0,0,0.0,0.0,0.923,0.394,-0.509,-0.662,-2.922,3.016,0.797
2025-08-02T16:45:03.459806,0,37871,0,0,0.0,0.0,0.926,0.39,-0.511,-0.667,-3.781,1.281,1.531
2025-08-02T16:45:03.534648,0,37925,0,0,0.0,0.0,0.924,0.395,-0.507,-0.664,-1.422,0.812,1.047
2025-08-02T16:45:03.564513,0,37970,0,0,0.0,0.0,0.926,0.392,-0.508,-0.667,-0.359,0.438,-0.484
2025-08-02T16:45:03.609632,0,38020,0,0,0.0,0.0,0.919,0.389,-0.509,-0.66,0.406,-0.641,-0.906
2025-08-02T16:45:03.669635,0,38070,0,0,0.0,0.0,0.927,0.391,-0.514,-0.665,1.109,-1.594,-0.453
2025-08-02T16:45:03.714269,0,38120,0,0,0.0,0.0,0.923,0.392,-0.514,-0.659,0.672,0.219,-1.328
2025-08-02T16:45:03.759435,0,38170,0,0,0.0,0.0,0.923,0.397,-0.511,-0.658,-0.328,-0.203,-0.516
2025-08-02T16:45:03.819338,0,38221,0,0,0.0,0.0,0.919,0.387,-0.511,-0.658,-1.516,1.438,-1.047
2025-08-02T16:45:03.864325,0,38275,0,0,0.0,0.0,0.92,0.39,-0.518,-0.652,-2.422,-0.047,0.344
2025-08-02T16:45:03.909394,0,38316,0,0,0.0,0.0,0.92,0.392,-0.51,-0.657,-1.281,3.797,-0.328
2025-08-02T16:45:03.969342,0,38370,0,0,0.0,0.0,0.927,0.393,-0.513,-0.665,-2.812,-1.312,0.812
2025-08-02T16:45:04.014339,0,38421,0,0,0.0,0.0,0.921,0.392,-0.51,-0.658,-0.422,0.859,-3.875
2025-08-02T16:45:04.059328,0,38470,0,0,0.0,0.0,0.917,0.389,-0.513,-0.654,-1.328,3.266,-0.766
2025-08-02T16:45:04.119310,0,38520,0,0,0.0,0.0,0.926,0.395,-0.51,-0.663,-1.859,3.156,1.203
2025-08-02T16:45:04.164321,0,38570,0,0,0.0,0.0,0.926,0.396,-0.51,-0.665,-1.703,2.656,0.422
2025-08-02T16:45:04.209324,0,38621,0,0,0.0,0.0,0.917,0.386,-0.507,-0.66,-1.234,1.859,0.141
2025-08-02T16:45:04.269346,0,38675,0,0,0.0,0.0,0.922,0.395,-0.508,-0.66,-0.734,1.375,-0.781
2025-08-02T16:45:04.314334,0,38720,0,0,0.0,0.0,0.925,0.396,-0.513,-0.659,-1.578,0.672,0.078
2025-08-02T16:45:04.359294,0,38770,0,0,0.0,0.0,0.921,0.395,-0.512,-0.656,-1.828,0.531,0.516
2025-08-02T16:45:04.419355,0,38820,0,0,0.0,0.0,0.921,0.394,-0.512,-0.657,-1.969,2.297,0.562
2025-08-02T16:45:04.464348,0,38870,0,0,0.0,0.0,0.922,0.39,-0.511,-0.66,-2.344,0.766,0.078
2025-08-02T16:45:04.509361,0,38920,0,0,0.0,0.0,0.925,0.396,-0.513,-0.66,-2.375,1.188,0.516
2025-08-02T16:45:04.569350,0,38971,0,0,0.0,0.0,0.918,0.393,-0.509,-0.656,-2.422,2.797,0.484
2025-08-02T16:45:04.614356,0,39025,0,0,0.0,0.0,0.93,0.399,-0.51,-0.667,-2.328,-1.109,0.219
2025-08-02T16:45:04.659781,0,39066,0,0,0.0,0.0,0.921,0.393,-0.513,-0.657,-1.672,0.719,-0.297
2025-08-02T16:45:04.719428,0,39120,0,0,0.0,0.0,0.914,0.388,-0.507,-0.654,-2.281,2.219,-0.062
2025-08-02T16:45:04.764372,0,39170,0,0,0.0,0.0,0.929,0.398,-0.512,-0.665,-2.234,1.312,-0.031
2025-08-02T16:45:04.824404,0,39225,0,0,0.0,0.0,0.926,0.394,-0.509,-0.665,-2.719,1.656,-0.172
2025-08-02T16:45:04.869412,0,39270,0,0,0.0,0.0,0.922,0.398,-0.507,-0.659,-2.875,0.25,-0.75
2025-08-02T16:45:04.914428,0,39320,0,0,0.0,0.0,0.92,0.395,-0.51,-0.656,-3.359,0.422,-1.109
2025-08-02T16:45:04.959375,0,39371,0,0,0.0,0.0,0.923,0.396,-0.511,-0.658,-3.922,1.734,0.25
2025-08-02T16:45:05.019335,0,39420,0,0,0.0,0.0,0.925,0.394,-0.511,-0.662,-4.094,1.531,1.812
2025-08-02T16:45:05.064426,0,39470,0,0,0.0,0.0,0.925,0.39,-0.504,-0.671,-3.078,0.766,1.578
2025-08-02T16:45:05.109581,0,39520,0,0,0.0,0.0,0.918,0.391,-0.501,-0.662,-0.859,0.75,-0.453
2025-08-02T16:45:05.169473,0,39570,0,0,0.0,0.0,0.924,0.393,-0.508,-0.665,0.297,0.266,-1.766
2025-08-02T16:45:05.217402,0,39625,0,0,0.0,0.0,0.912,0.386,-0.504,-0.655,-1.875,2.469,0.094
2025-08-02T16:45:05.259297,0,39670,0,0,0.0,0.0,0.937,0.405,-0.513,-0.671,-2.0,0.312,0.703
2025-08-02T16:45:05.319369,0,39721,0,0,0.0,0.0,0.921,0.397,-0.507,-0.658,-3.141,-0.281,1.469
2025-08-02T16:45:05.364389,0,39770,0,0,0.0,0.0,0.921,0.391,-0.511,-0.659,-2.344,3.234,0.516
2025-08-02T16:45:05.409375,0,39820,0,0,0.0,0.0,0.924,0.394,-0.509,-0.663,-2.625,2.844,0.922
2025-08-02T16:45:05.469384,0,39875,0,0,0.0,0.0,0.924,0.397,-0.503,-0.666,-3.109,3.484,1.281
2025-08-02T16:45:05.514254,0,39925,0,0,0.0,0.0,0.923,0.391,-0.504,-0.667,-1.766,1.531,0.406
2025-08-02T16:45:05.559210,0,39970,0,0,0.0,0.0,0.927,0.399,-0.507,-0.665,-1.062,2.031,-0.828
2025-08-02T16:45:05.619255,0,40020,0,0,0.0,0.0,0.92,0.397,-0.505,-0.658,-0.094,1.25,-0.844
2025-08-02T16:45:05.664202,0,40070,0,0,0.0,0.0,0.923,0.396,-0.51,-0.66,0.297,0.234,3.984
2025-08-02T16:45:05.724258,0,40120,0,0,0.0,0.0,0.927,0.401,-0.509,-0.663,-0.594,0.641,-0.219
2025-08-02T16:45:05.769419,0,40170,0,0,0.0,0.0,0.923,0.398,-0.507,-0.66,-1.719,2.531,0.891
2025-08-02T16:45:05.829227,0,40220,0,0,0.0,0.0,0.92,0.39,-0.502,-0.665,-0.25,1.766,0.578
2025-08-02T16:45:05.874329,0,40275,0,0,0.0,0.0,0.933,0.406,-0.509,-0.668,1.766,-4.781,-1.156
2025-08-02T16:45:05.934334,0,40319,0,0,0.0,0.0,0.921,0.396,-0.512,-0.655,0.859,-6.531,-0.422
2025-08-02T16:45:05.964274,0,40370,0,0,0.0,0.0,0.918,0.395,-0.515,-0.649,-1.859,-1.516,1.391
2025-08-02T16:45:06.009266,0,40421,0,0,0.0,0.0,0.928,0.396,-0.522,-0.657,-4.953,2.688,5.188
2025-08-02T16:45:06.069278,0,40470,0,0,0.0,0.0,0.913,0.39,-0.504,-0.654,-5.891,4.672,5.016
2025-08-02T16:45:06.114298,0,40520,0,0,0.0,0.0,0.91,0.378,-0.506,-0.655,-5.547,10.141,0.922
2025-08-02T16:45:06.159388,0,40570,0,0,0.0,0.0,0.898,0.387,-0.501,-0.637,-2.141,10.125,-7.641
2025-08-02T16:45:06.219407,0,40621,0,0,0.0,0.0,0.877,0.386,-0.49,-0.617,4.453,33.281,-23.578
2025-08-02T16:45:06.264412,0,40675,0,0,0.0,0.0,0.909,0.389,-0.52,-0.636,8.406,36.031,-23.609
2025-08-02T16:45:06.309408,0,40720,0,0,0.0,0.0,0.883,0.365,-0.495,-0.634,19.625,52.031,-29.547
2025-08-02T16:45:06.369415,0,40770,0,0,0.0,0.0,0.896,0.401,-0.491,-0.633,37.609,56.766,-29.938
2025-08-02T16:45:06.414407,0,40820,0,0,0.0,0.0,0.953,0.468,-0.535,-0.635,47.031,78.094,-26.5
2025-08-02T16:45:06.459414,0,40870,0,0,0.0,0.0,0.962,0.521,-0.543,-0.6,53.172,80.094,-17.547
2025-08-02T16:45:06.519429,0,40920,0,0,0.0,0.0,0.929,0.524,-0.532,-0.552,56.875,79.094,-12.828
2025-08-02T16:45:06.564595,0,40971,0,0,0.0,0.0,0.819,0.499,-0.443,-0.474,65.594,109.484,-16.203
2025-08-02T16:45:06.624502,0,41025,0,0,0.0,0.0,1.092,0.607,-0.677,-0.605,75.234,59.234,-6.047
2025-08-02T16:45:06.654358,0,41066,0,0,0.0,0.0,1.02,0.518,-0.683,-0.552,40.672,70.734,15.188
2025-08-02T16:45:06.714385,0,41120,0,0,0.0,0.0,0.999,0.636,-0.642,-0.427,25.25,76.734,24.578
2025-08-02T16:45:06.759313,0,41170,0,0,0.0,0.0,1.051,0.627,-0.69,-0.486,11.469,58.891,28.594
2025-08-02T16:45:06.819297,0,41225,0,0,0.0,0.0,0.96,0.615,-0.633,-0.379,-5.906,50.969,36.094
2025-08-02T16:45:06.864275,0,41270,0,0,0.0,0.0,0.97,0.588,-0.658,-0.402,-14.156,16.531,43.406
2025-08-02T16:45:06.909279,0,41320,0,0,0.0,0.0,0.907,0.578,-0.605,-0.35,-39.922,12.703,50.312
2025-08-02T16:45:06.969255,0,41371,0,0,0.0,0.0,0.87,0.508,-0.605,-0.363,-40.109,0.672,44.875
2025-08-02T16:45:07.014261,0,41425,0,0,0.0,0.0,0.945,0.508,-0.564,-0.562,-66.141,5.688,37.172
2025-08-02T16:45:07.059270,0,41470,0,0,0.0,0.0,0.94,0.461,-0.501,-0.648,-94.984,-15.781,21.625
2025-08-02T16:45:07.119373,0,41520,0,0,0.0,0.0,0.953,0.475,-0.528,-0.636,-109.938,-30.172,4.688
2025-08-02T16:45:07.164305,0,41570,0,0,0.0,0.0,0.888,0.478,-0.569,-0.486,-89.797,-55.625,-6.547
2025-08-02T16:45:07.224301,0,41625,0,0,0.0,0.0,0.773,0.374,-0.555,-0.386,-45.484,-21.125,-29.406
2025-08-02T16:45:07.269276,0,41670,0,0,0.0,0.0,0.787,0.34,-0.506,-0.498,-30.391,30.594,-38.094
2025-08-02T16:45:07.329285,0,41721,0,0,0.0,0.0,0.861,0.417,-0.474,-0.586,-23.078,22.594,-26.422
2025-08-02T16:45:07.374252,0,41775,0,0,0.0,0.0,0.958,0.433,-0.591,-0.618,-32.25,9.891,-4.625
2025-08-02T16:45:07.404270,0,41816,0,0,0.0,0.0,0.881,0.416,-0.578,-0.518,-51.125,11.688,11.375
2025-08-02T16:45:07.464262,0,41870,0,0,0.0,0.0,0.883,0.352,-0.609,-0.535,-45.391,31.938,19.703
2025-08-02T16:45:07.509287,0,41920,0,0,0.0,0.0,1.286,0.837,-0.77,-0.6,-5.203,107.625,-23.344
2025-08-02T16:45:07.569278,0,41975,0,0,0.0,0.0,1.134,0.681,-0.708,-0.565,-34.0,-79.719,33.203
2025-08-02T16:45:07.614300,0,42020,0,0,0.0,0.0,0.726,0.141,-0.395,-0.593,-115.844,41.344,20.438
2025-08-02T16:45:07.674271,0,42070,0,0,0.0,0.0,1.066,0.892,-0.332,-0.48,-53.547,52.719,46.484
2025-08-02T16:45:07.719304,0,42121,0,0,0.0,0.0,1.06,0.745,-0.545,-0.521,-87.75,61.906,32.094
2025-08-02T16:45:07.764277,0,42170,0,0,0.0,0.0,0.867,0.648,-0.376,-0.437,-71.781,44.984,37.547
2025-08-02T16:45:07.809274,0,42220,0,0,0.0,0.0,1.016,0.622,-0.245,-0.765,-81.141,39.922,32.047
2025-08-02T16:45:07.869276,0,42270,0,0,0.0,0.0,1.028,0.586,-0.11,-0.837,-107.531,85.781,37.984
2025-08-02T16:45:07.914313,0,42320,0,0,0.0,0.0,1.16,0.765,-0.318,-0.812,-124.891,-111.516,60.422
2025-08-02T16:45:07.974311,0,42374,0,0,0.0,0.0,1.002,0.718,-0.092,-0.693,-141.594,-264.578,-8.375
2025-08-02T16:45:08.019327,0,42420,0,0,0.0,0.0,0.888,0.71,-0.0,-0.533,-145.125,-512.0,116.281
2025-08-02T16:45:08.079313,0,42471,0,0,0.0,0.0,1.069,-0.278,-0.136,-1.023,-50.438,-494.516,106.328
2025-08-02T16:45:08.109334,0,42520,0,0,0.0,0.0,1.092,0.22,-0.261,-1.037,-59.719,-56.297,-44.031
2025-08-02T16:45:08.184311,0,42570,0,0,0.0,0.0,0.96,0.004,-0.333,-0.9,-64.859,-214.891,-3.094
2025-08-02T16:45:08.214339,0,42625,0,0,0.0,0.0,0.971,-0.09,-0.307,-0.917,-63.922,-124.812,-21.859
2025-08-02T16:45:08.289338,0,42674,0,0,0.0,0.0,0.879,-0.066,-0.303,-0.823,-36.516,-134.484,-12.344
2025-08-02T16:45:08.319294,0,42720,0,0,0.0,0.0,0.847,-0.202,-0.325,-0.756,-6.984,-87.484,0.812
2025-08-02T16:45:08.364279,0,42770,0,0,0.0,0.0,0.947,-0.165,-0.333,-0.871,27.953,-3.969,28.031
2025-08-02T16:45:08.409294,0,42820,0,0,0.0,0.0,0.995,-0.237,-0.419,-0.871,24.641,34.719,38.875
2025-08-02T16:45:08.469389,0,42870,0,0,0.0,0.0,0.852,-0.194,-0.342,-0.757,0.422,75.672,31.859
2025-08-02T16:45:08.514415,0,42920,0,0,0.0,0.0,0.788,-0.148,-0.252,-0.732,0.25,128.078,46.0
2025-08-02T16:45:08.559394,0,42971,0,0,0.0,0.0,0.854,0.011,-0.266,-0.811,19.703,44.125,65.062
2025-08-02T16:45:08.619450,0,43025,0,0,0.0,0.0,0.929,-0.079,-0.312,-0.872,19.281,55.0,59.5
2025-08-02T16:45:08.664394,0,43066,0,0,0.0,0.0,0.946,0.009,-0.357,-0.876,10.781,50.797,39.938
2025-08-02T16:45:08.709426,0,43120,0,0,0.0,0.0,0.87,-0.055,-0.267,-0.826,-2.844,25.125,6.359
2025-08-02T16:45:08.769429,0,43171,0,0,0.0,0.0,0.891,-0.028,-0.256,-0.853,4.141,-0.688,-13.281
2025-08-02T16:45:08.814447,0,43220,0,0,0.0,0.0,0.89,-0.076,-0.265,-0.846,6.359,-36.453,-35.375
2025-08-02T16:45:08.859437,0,43270,0,0,0.0,0.0,1.019,0.082,-0.31,-0.967,-14.266,-13.234,-88.031
2025-08-02T16:45:08.919468,0,43320,0,0,0.0,0.0,0.976,-0.02,-0.263,-0.94,-21.875,-23.125,-114.203
2025-08-02T16:45:08.964465,0,43371,0,0,0.0,0.0,0.876,-0.073,-0.217,-0.846,-26.156,-39.016,-114.703
2025-08-02T16:45:09.024472,0,43424,0,0,0.0,0.0,0.921,-0.076,-0.232,-0.888,-25.266,-31.266,-114.109
2025-08-02T16:45:09.069455,0,43470,0,0,0.0,0.0,0.888,-0.225,-0.254,-0.821,-18.422,-14.531,-82.781
2025-08-02T16:45:09.114471,0,43520,0,0,0.0,0.0,0.921,-0.087,-0.285,-0.871,-13.453,-4.578,-56.812
2025-08-02T16:45:09.159456,0,43570,0,0,0.0,0.0,0.965,0.174,-0.27,-0.91,-24.125,28.922,-30.984
2025-08-02T16:45:09.219493,0,43620,0,0,0.0,0.0,0.955,0.013,-0.265,-0.918,-37.531,-12.688,-18.078
2025-08-02T16:45:09.264457,0,43670,0,0,0.0,0.0,0.959,-0.091,-0.228,-0.927,-40.562,-9.781,-35.375
2025-08-02T16:45:09.309492,0,43721,0,0,0.0,0.0,0.933,-0.093,-0.203,-0.906,-36.594,15.516,-40.094
2025-08-02T16:45:09.369500,0,43775,0,0,0.0,0.0,0.942,-0.076,-0.212,-0.915,-30.578,10.922,-46.188
2025-08-02T16:45:09.414505,0,43816,0,0,0.0,0.0,0.969,-0.044,-0.229,-0.94,-25.625,11.281,-44.734
2025-08-02T16:45:09.459487,0,43870,0,0,0.0,0.0,0.933,-0.005,-0.181,-0.915,-25.453,3.328,-39.547
2025-08-02T16:45:09.519504,0,43921,0,0,0.0,0.0,0.918,0.011,-0.151,-0.906,-25.719,0.984,-48.031
2025-08-02T16:45:09.564466,0,43974,0,0,0.0,0.0,0.93,0.023,-0.133,-0.92,-22.969,0.094,-52.609
2025-08-02T16:45:09.609474,0,44020,0,0,0.0,0.0,0.945,0.065,-0.085,-0.939,-20.438,5.172,-40.812
2025-08-02T16:45:09.669506,0,44070,0,0,0.0,0.0,0.956,0.052,-0.076,-0.951,-25.688,-5.719,-32.469
2025-08-02T16:45:09.714528,0,44121,0,0,0.0,0.0,0.96,0.055,-0.092,-0.954,-32.938,-12.406,-35.766
2025-08-02T16:45:09.759500,0,44170,0,0,0.0,0.0,0.948,0.025,-0.073,-0.945,-35.109,-16.062,-24.469
2025-08-02T16:45:09.819512,0,44220,0,0,0.0,0.0,0.95,0.049,-0.064,-0.946,-32.172,-8.531,-19.203
2025-08-02T16:45:09.864498,0,44270,0,0,0.0,0.0,0.957,0.014,-0.054,-0.955,-29.344,2.078,-26.281
2025-08-02T16:45:09.924549,0,44320,0,0,0.0,0.0,0.956,0.01,-0.088,-0.951,-22.953,17.172,-36.719
2025-08-02T16:45:09.969543,0,44374,0,0,0.0,0.0,0.95,0.064,-0.061,-0.946,-16.625,15.484,-14.969
2025-08-02T16:45:10.029584,0,44420,0,0,0.0,0.0,0.93,0.041,-0.037,-0.928,-13.906,36.938,-15.578
2025-08-02T16:45:10.059516,0,44471,0,0,0.0,0.0,0.96,0.081,-0.019,-0.956,-13.406,57.031,-19.922
2025-08-02T16:45:10.119527,0,44520,0,0,0.0,0.0,0.97,0.109,-0.003,-0.964,-4.344,59.859,-10.844
2025-08-02T16:45:10.164439,0,44570,0,0,0.0,0.0,0.918,0.142,-0.01,-0.907,-3.219,36.812,-12.828
2025-08-02T16:45:10.239392,0,44625,0,0,0.0,0.0,0.967,0.134,0.002,-0.958,-0.922,41.188,-18.438
2025-08-02T16:45:10.269407,0,44674,0,0,0.0,0.0,0.944,0.129,-0.021,-0.935,4.297,-0.25,-22.875
2025-08-02T16:45:10.314410,0,44720,0,0,0.0,0.0,0.937,0.121,-0.012,-0.929,4.406,-20.125,-12.766
2025-08-02T16:45:10.359327,0,44770,0,0,0.0,0.0,0.949,0.068,-0.016,-0.946,-4.531,-53.484,1.328
2025-08-02T16:45:10.434409,0,44821,0,0,0.0,0.0,1.01,0.089,-0.022,-1.006,-5.641,-31.609,-3.781
2025-08-02T16:45:10.494326,0,44870,0,0,0.0,0.0,1.009,0.044,-0.013,-1.008,-13.797,1.078,-6.344
2025-08-02T16:45:10.509209,0,44920,0,0,0.0,0.0,0.987,0.079,0.004,-0.984,-17.641,23.328,5.391
2025-08-02T16:45:10.569326,0,44970,0,0,0.0,0.0,0.979,0.077,0.0,-0.976,-20.047,46.688,10.078
2025-08-02T16:45:10.614320,0,45024,0,0,0.0,0.0,0.975,0.063,0.001,-0.973,-18.672,98.188,25.984
2025-08-02T16:45:10.659324,0,45069,0,0,0.0,0.0,0.957,0.164,-0.015,-0.943,-13.0,99.391,30.766
2025-08-02T16:45:10.719328,0,45120,0,0,0.0,0.0,0.952,0.194,0.031,-0.932,-19.203,107.016,18.859
2025-08-02T16:45:10.764326,0,45171,0,0,0.0,0.0,0.915,0.177,-0.001,-0.898,-6.391,160.906,35.625
2025-08-02T16:45:10.809213,0,45220,0,0,0.0,0.0,0.961,0.322,-0.019,-0.905,-3.578,-1.609,7.125
2025-08-02T16:45:10.869183,0,45270,0,0,0.0,0.0,0.965,0.286,0.001,-0.922,2.5,13.766,26.125
2025-08-02T16:45:10.914197,0,45320,0,0,0.0,0.0,1.001,0.28,0.003,-0.961,5.75,-30.828,42.141
2025-08-02T16:45:10.959329,0,45371,0,0,0.0,0.0,0.986,0.239,-0.002,-0.957,-1.109,-38.562,18.312
2025-08-02T16:45:11.019328,0,45424,0,0,0.0,0.0,0.957,0.235,-0.013,-0.927,-2.469,-30.734,-6.141
2025-08-02T16:45:11.064211,0,45470,0,0,0.0,0.0,0.962,0.231,0.009,-0.933,3.188,-46.906,35.953
2025-08-02T16:45:11.109636,0,45520,0,0,0.0,0.0,0.967,0.223,-0.003,-0.941,6.094,-37.891,9.672
2025-08-02T16:45:11.169344,0,45570,0,0,0.0,0.0,0.944,0.194,-0.024,-0.924,12.594,-51.844,18.859
2025-08-02T16:45:11.214335,0,45620,0,0,0.0,0.0,0.936,0.179,-0.023,-0.919,15.703,-12.031,-5.281
2025-08-02T16:45:11.259317,0,45670,0,0,0.0,0.0,0.956,0.169,-0.032,-0.941,18.344,0.578,-14.172
2025-08-02T16:45:11.319327,0,45721,0,0,0.0,0.0,0.942,0.178,-0.035,-0.925,20.5,36.797,-12.453
2025-08-02T16:45:11.364189,0,45774,0,0,0.0,0.0,0.961,0.144,-0.038,-0.949,13.625,87.812,5.609
2025-08-02T16:45:11.409209,0,45816,0,0,0.0,0.0,0.993,0.242,-0.077,-0.96,5.125,75.969,-9.984
2025-08-02T16:45:11.469348,0,45870,0,0,0.0,0.0,0.984,0.239,-0.057,-0.952,-5.953,47.828,-3.156
2025-08-02T16:45:11.514323,0,45921,0,0,0.0,0.0,0.987,0.275,-0.064,-0.946,-9.281,16.312,-6.641
2025-08-02T16:45:11.559228,0,45970,0,0,0.0,0.0,0.966,0.248,-0.047,-0.933,-5.453,14.453,1.641
2025-08-02T16:45:11.619199,0,46020,0,0,0.0,0.0,0.959,0.271,-0.052,-0.918,0.109,2.703,9.859
2025-08-02T16:45:11.664329,0,46070,0,0,0.0,0.0,0.918,0.245,-0.06,-0.883,-1.047,-18.391,4.297
2025-08-02T16:45:11.724305,0,46121,0,0,0.0,0.0,0.969,0.284,-0.057,-0.925,14.594,2.141,3.078
2025-08-02T16:45:11.769381,0,46172,0,0,0.0,0.0,0.983,0.327,-0.077,-0.923,13.922,-6.453,13.328
2025-08-02T16:45:11.949216,0,46351,0,0,0.0,0.0,0.968,0.266,-0.061,-0.929,3.516,4.812,-0.781
2025-08-02T16:45:11.950214,0,46356,0,0,0.0,0.0,0.974,0.276,-0.066,-0.932,3.516,3.016,-0.547
2025-08-02T16:45:11.964207,0,46367,0,0,0.0,0.0,0.98,0.279,-0.071,-0.937,2.797,-0.359,-1.734
2025-08-02T16:45:11.979174,0,46380,0,0,0.0,0.0,0.971,0.262,-0.069,-0.933,3.094,0.516,-0.312
2025-08-02T16:45:12.009175,0,46420,0,0,0.0,0.0,0.971,0.265,-0.066,-0.932,3.203,5.266,2.625
2025-08-02T16:45:12.069196,0,46470,0,0,0.0,0.0,0.963,0.254,-0.068,-0.926,0.078,5.094,-0.438
2025-08-02T16:45:12.129309,0,46520,0,0,0.0,0.0,0.967,0.278,-0.082,-0.923,-0.219,2.844,-3.625
2025-08-02T16:45:12.159255,0,46570,0,0,0.0,0.0,0.972,0.277,-0.08,-0.928,-1.078,1.25,-4.516
2025-08-02T16:45:12.234237,0,46620,0,0,0.0,0.0,0.971,0.259,-0.081,-0.933,-1.703,-9.781,1.406
2025-08-02T16:45:12.264378,0,46670,0,0,0.0,0.0,0.962,0.242,-0.076,-0.927,-4.0,-29.672,5.0
2025-08-02T16:45:12.309214,0,46720,0,0,0.0,0.0,0.969,0.246,-0.093,-0.933,-8.422,-4.984,4.109
2025-08-02T16:45:12.384342,0,46770,0,0,0.0,0.0,0.993,0.258,-0.078,-0.956,-11.781,-19.359,6.5
2025-08-02T16:45:12.414225,0,46820,0,0,0.0,0.0,0.967,0.232,-0.069,-0.936,-16.734,3.672,3.672
2025-08-02T16:45:12.459338,0,46870,0,0,0.0,0.0,1.01,0.29,-0.071,-0.964,-19.719,3.25,-0.656
2025-08-02T16:45:12.519336,0,46920,0,0,0.0,0.0,1.032,0.312,-0.075,-0.981,-25.281,8.609,-9.344
2025-08-02T16:45:12.564205,0,46970,0,0,0.0,0.0,0.969,0.199,-0.079,-0.945,-7.266,7.859,4.422
2025-08-02T16:45:12.609383,0,47020,0,0,0.0,0.0,0.929,0.265,-0.028,-0.89,-13.812,-15.453,-28.875
2025-08-02T16:45:12.684476,0,47070,0,0,0.0,0.0,0.937,0.253,-0.006,-0.902,-10.469,-4.672,-20.297
2025-08-02T16:45:12.714394,0,47120,0,0,0.0,0.0,0.899,0.071,0.028,-0.896,-4.953,-19.172,-18.859
2025-08-02T16:45:12.759254,0,47170,0,0,0.0,0.0,0.927,0.27,0.022,-0.887,-2.578,3.312,-16.609
2025-08-02T16:45:12.819232,0,47220,0,0,0.0,0.0,0.895,0.168,0.025,-0.878,11.891,-8.562,6.516
2025-08-02T16:45:12.864234,0,47270,0,0,0.0,0.0,0.95,0.249,-0.005,-0.917,11.812,16.781,1.109
2025-08-02T16:45:12.909226,0,47320,0,0,0.0,0.0,0.962,0.229,-0.032,-0.934,10.359,17.953,0.031
2025-08-02T16:45:12.969205,0,47370,0,0,0.0,0.0,0.989,0.312,-0.061,-0.937,4.203,37.297,2.25
2025-08-02T16:45:13.014212,0,47420,0,0,0.0,0.0,0.941,0.257,-0.05,-0.904,1.938,52.156,8.516
2025-08-02T16:45:13.059233,0,47470,0,0,0.0,0.0,0.946,0.3,-0.05,-0.896,-1.672,51.641,5.484
2025-08-02T16:45:13.119358,0,47520,0,0,0.0,0.0,0.971,0.273,-0.053,-0.93,-6.875,63.547,21.797
2025-08-02T16:45:13.164362,0,47570,0,0,0.0,0.0,1.008,0.319,-0.038,-0.955,-17.734,56.047,40.047
2025-08-02T16:45:13.209359,0,47620,0,0,0.0,0.0,0.991,0.316,-0.029,-0.939,-24.094,33.953,54.703
2025-08-02T16:45:13.269349,0,47670,0,0,0.0,0.0,1.015,0.335,-0.063,-0.957,-19.531,1.203,66.828
2025-08-02T16:45:13.314359,0,47720,0,0,0.0,0.0,1.037,0.283,-0.074,-0.995,-2.922,-44.578,85.344
2025-08-02T16:45:13.359484,0,47770,0,0,0.0,0.0,1.1,0.012,-0.328,-1.049,-7.984,-78.906,59.375
2025-08-02T16:45:13.419437,0,47820,0,0,0.0,0.0,1.076,-0.18,-0.258,-1.029,0.844,-100.391,119.938
2025-08-02T16:45:13.464411,0,47870,0,0,0.0,0.0,1.14,-0.024,-0.263,-1.109,2.344,-143.844,172.797
2025-08-02T16:45:13.509434,0,47920,0,0,0.0,0.0,1.173,-0.162,-0.194,-1.145,11.125,-178.453,241.156
2025-08-02T16:45:13.569481,0,47970,0,0,0.0,0.0,1.187,-0.063,-0.124,-1.179,7.703,-223.812,265.656
2025-08-02T16:45:13.614477,0,48020,0,0,0.0,0.0,0.92,-0.027,0.015,-0.919,19.281,-214.672,248.953
2025-08-02T16:45:13.659491,0,48070,0,0,0.0,0.0,0.982,0.062,0.028,-0.979,49.406,-180.344,224.344
2025-08-02T16:45:13.719553,0,48120,0,0,0.0,0.0,0.774,-0.074,0.054,-0.768,64.156,-169.766,171.266
2025-08-02T16:45:13.764481,0,48170,0,0,0.0,0.0,0.818,0.075,-0.014,-0.815,84.969,-111.125,118.094
2025-08-02T16:45:13.809440,0,48220,0,0,0.0,0.0,0.804,-0.12,-0.093,-0.789,79.703,-121.297,59.125
2025-08-02T16:45:13.869534,0,48270,0,0,0.0,0.0,0.785,-0.211,-0.117,-0.747,84.688,-84.922,19.547
2025-08-02T16:45:13.914473,0,48320,0,0,0.0,0.0,0.893,-0.405,-0.202,-0.77,94.625,-110.453,-0.484
2025-08-02T16:45:13.974780,0,48370,0,0,0.0,0.0,0.919,-0.386,-0.357,-0.753,66.266,-59.359,-35.625
2025-08-02T16:45:14.019428,0,48420,0,0,0.0,0.0,1.181,-0.36,-0.495,-1.01,15.344,72.484,-66.0
2025-08-02T16:45:14.064430,0,48470,0,0,0.0,0.0,0.803,-0.366,-0.255,-0.667,-58.75,30.781,-64.062
2025-08-02T16:45:14.124484,0,48520,0,0,0.0,0.0,0.715,-0.342,-0.223,-0.587,-15.906,97.125,-32.0
2025-08-02T16:45:14.169457,0,48570,0,0,0.0,0.0,0.947,-0.318,-0.39,-0.802,-51.781,-41.859,-33.328
2025-08-02T16:45:14.229432,0,48620,0,0,0.0,0.0,0.996,-0.554,-0.167,-0.81,-50.438,4.516,-31.875
2025-08-02T16:45:14.259409,0,48670,0,0,0.0,0.0,0.956,-0.452,-0.198,-0.819,-73.172,37.531,-31.391
2025-08-02T16:45:14.319420,0,48720,0,0,0.0,0.0,0.931,-0.379,-0.122,-0.841,-62.141,67.969,-35.562
2025-08-02T16:45:14.364418,0,48770,0,0,0.0,0.0,0.928,-0.354,-0.142,-0.846,-66.016,52.391,-25.406
2025-08-02T16:45:14.409466,0,48820,0,0,0.0,0.0,0.896,-0.238,-0.185,-0.844,-61.594,28.734,-22.938
2025-08-02T16:45:14.469401,0,48870,0,0,0.0,0.0,0.978,-0.428,-0.119,-0.871,-61.812,10.0,-22.359
2025-08-02T16:45:14.514421,0,48920,0,0,0.0,0.0,0.931,-0.271,-0.051,-0.889,-47.922,71.078,-17.344
2025-08-02T16:45:14.559360,0,48970,0,0,0.0,0.0,0.938,-0.257,-0.059,-0.9,-35.766,40.688,-13.219
2025-08-02T16:45:14.634382,0,49020,0,0,0.0,0.0,0.941,-0.285,-0.079,-0.893,-30.859,62.641,2.578
2025-08-02T16:45:14.664364,0,49070,0,0,0.0,0.0,0.925,-0.22,-0.072,-0.895,-30.266,44.844,14.281
2025-08-02T16:45:14.709486,0,49120,0,0,0.0,0.0,0.941,-0.236,-0.039,-0.91,-27.672,56.359,18.328
2025-08-02T16:45:14.769733,0,49170,0,0,0.0,0.0,0.95,-0.173,0.016,-0.934,-18.359,44.391,21.125
2025-08-02T16:45:14.814384,0,49220,0,0,0.0,0.0,0.945,-0.165,-0.009,-0.931,3.031,29.953,35.203
2025-08-02T16:45:14.859384,0,49270,0,0,0.0,0.0,0.956,-0.172,-0.012,-0.94,19.469,16.031,36.562
2025-08-02T16:45:14.919411,0,49320,0,0,0.0,0.0,0.957,-0.223,-0.02,-0.93,28.141,-7.109,21.25
2025-08-02T16:45:14.964391,0,49370,0,0,0.0,0.0,0.947,-0.193,-0.048,-0.926,25.781,9.766,13.484
2025-08-02T16:45:15.009392,0,49420,0,0,0.0,0.0,0.935,-0.154,-0.061,-0.92,24.172,12.781,25.094
2025-08-02T16:45:15.069501,0,49470,0,0,0.0,0.0,0.936,-0.156,-0.057,-0.921,25.703,3.016,39.797
2025-08-02T16:45:15.114665,0,49520,0,0,0.0,0.0,0.929,-0.185,-0.056,-0.908,27.375,-14.484,37.438
2025-08-02T16:45:15.159556,0,49570,0,0,0.0,0.0,0.938,-0.176,-0.07,-0.919,29.984,-30.688,26.969
2025-08-02T16:45:15.219511,0,49620,0,0,0.0,0.0,0.946,-0.247,-0.096,-0.908,33.484,-50.219,15.469
2025-08-02T16:45:15.264481,0,49670,0,0,0.0,0.0,0.917,-0.19,-0.097,-0.892,37.281,-66.562,2.562
2025-08-02T16:45:15.309501,0,49720,0,0,0.0,0.0,0.899,-0.219,-0.109,-0.865,58.25,-105.0,6.625
2025-08-02T16:45:15.369773,0,49770,0,0,0.0,0.0,0.911,-0.329,-0.164,-0.834,92.438,-157.016,9.281
2025-08-02T16:45:15.414569,0,49820,0,0,0.0,0.0,0.949,-0.465,-0.179,-0.807,80.156,-129.594,-23.188
2025-08-02T16:45:15.459479,0,49870,0,0,0.0,0.0,0.955,-0.47,-0.237,-0.797,56.891,-72.109,-34.328
2025-08-02T16:45:15.519490,0,49920,0,0,0.0,0.0,0.891,-0.394,-0.264,-0.754,37.859,-42.344,-16.406
2025-08-02T16:45:15.564555,0,49970,0,0,0.0,0.0,0.926,-0.474,-0.275,-0.747,26.094,-13.984,7.047
2025-08-02T16:45:15.609686,0,50020,0,0,0.0,0.0,0.938,-0.475,-0.26,-0.766,9.297,14.984,19.359
2025-08-02T16:45:15.669698,0,50070,0,0,0.0,0.0,0.937,-0.463,-0.232,-0.781,-2.328,31.75,18.812
2025-08-02T16:45:15.714701,0,50120,0,0,0.0,0.0,0.901,-0.382,-0.292,-0.762,-4.859,38.109,14.281
2025-08-02T16:45:15.759633,0,50170,0,0,0.0,0.0,0.908,-0.413,-0.274,-0.761,-8.969,15.516,11.188
2025-08-02T16:45:15.819719,0,50220,0,0,0.0,0.0,0.911,-0.401,-0.227,-0.786,-12.734,21.953,12.25
2025-08-02T16:45:15.864647,0,50270,0,0,0.0,0.0,0.908,-0.396,-0.23,-0.783,-14.953,7.219,12.406
2025-08-02T16:45:15.909567,0,50320,0,0,0.0,0.0,0.916,-0.419,-0.243,-0.777,-14.984,4.875,9.109
2025-08-02T16:45:15.969714,0,50370,0,0,0.0,0.0,0.922,-0.413,-0.224,-0.793,-12.219,7.328,6.266
2025-08-02T16:45:16.014565,0,50420,0,0,0.0,0.0,0.909,-0.394,-0.211,-0.792,-8.188,8.297,4.203
2025-08-02T16:45:16.059654,0,50470,0,0,0.0,0.0,0.918,-0.407,-0.216,-0.794,-6.047,-1.047,2.703
2025-08-02T16:45:16.119689,0,50520,0,0,0.0,0.0,0.923,-0.409,-0.221,-0.798,-5.828,10.328,0.656
2025-08-02T16:45:16.164519,0,50570,0,0,0.0,0.0,0.909,-0.392,-0.214,-0.792,-4.625,6.781,0.734
2025-08-02T16:45:16.209547,0,50620,0,0,0.0,0.0,0.922,-0.406,-0.21,-0.801,-3.047,6.156,2.562
2025-08-02T16:45:16.269569,0,50670,0,0,0.0,0.0,0.909,-0.386,-0.212,-0.795,-0.25,0.562,0.734
2025-08-02T16:45:16.314498,0,50720,0,0,0.0,0.0,0.908,-0.395,-0.215,-0.789,0.703,5.875,0.359
2025-08-02T16:45:16.374698,0,50770,0,0,0.0,0.0,0.916,-0.4,-0.213,-0.796,0.734,-2.969,-0.625
2025-08-02T16:45:16.419604,0,50820,0,0,0.0,0.0,0.922,-0.41,-0.212,-0.798,2.047,2.578,-0.531
2025-08-02T16:45:16.464584,0,50870,0,0,0.0,0.0,0.92,-0.404,-0.216,-0.799,2.891,-1.531,-0.641
2025-08-02T16:45:16.509776,0,50920,0,0,0.0,0.0,0.917,-0.394,-0.226,-0.796,3.266,6.781,0.469
2025-08-02T16:45:16.569805,0,50970,0,0,0.0,0.0,0.921,-0.39,-0.223,-0.803,0.109,2.625,1.312
2025-08-02T16:45:16.614528,0,51020,0,0,0.0,0.0,0.915,-0.39,-0.228,-0.796,1.531,0.422,2.719
2025-08-02T16:45:16.659528,0,51070,0,0,0.0,0.0,0.917,-0.395,-0.217,-0.799,1.078,-0.375,2.797
2025-08-02T16:45:16.719578,0,51120,0,0,0.0,0.0,0.916,-0.402,-0.222,-0.793,1.969,-0.594,-0.031
2025-08-02T16:45:16.764475,0,51170,0,0,0.0,0.0,0.917,-0.402,-0.221,-0.794,2.031,-2.766,0.969
2025-08-02T16:45:16.809582,0,51220,0,0,0.0,0.0,0.911,-0.397,-0.228,-0.787,2.656,-1.703,-1.25
2025-08-02T16:45:16.869467,0,51270,0,0,0.0,0.0,0.917,-0.396,-0.228,-0.795,1.531,0.547,-0.203
2025-08-02T16:45:16.914582,0,51320,0,0,0.0,0.0,0.924,-0.408,-0.233,-0.795,-0.922,-2.25,2.203
2025-08-02T16:45:16.959469,0,51370,0,0,0.0,0.0,0.915,-0.384,-0.228,-0.798,-0.266,3.297,1.531
2025-08-02T16:45:17.019472,0,51420,0,0,0.0,0.0,0.917,-0.402,-0.229,-0.792,0.578,-4.531,1.219
2025-08-02T16:45:17.064480,0,51470,0,0,0.0,0.0,0.916,-0.401,-0.225,-0.792,1.75,1.078,-0.094
2025-08-02T16:45:17.109622,0,51520,0,0,0.0,0.0,0.916,-0.41,-0.233,-0.785,5.453,-17.109,-0.531
2025-08-02T16:45:17.169595,0,51570,0,0,0.0,0.0,0.911,-0.411,-0.238,-0.777,5.688,-15.906,-1.016
2025-08-02T16:45:17.214453,0,51620,0,0,0.0,0.0,0.911,-0.414,-0.24,-0.775,1.172,0.5,-0.234
2025-08-02T16:45:17.259580,0,51670,0,0,0.0,0.0,0.924,-0.423,-0.236,-0.787,-4.281,-0.688,3.25
2025-08-02T16:45:17.319616,0,51720,0,0,0.0,0.0,0.916,-0.418,-0.236,-0.78,-5.703,-3.312,5.812
2025-08-02T16:45:17.364622,0,51770,0,0,0.0,0.0,0.914,-0.415,-0.232,-0.78,-3.672,-2.516,0.688
2025-08-02T16:45:17.409632,0,51820,0,0,0.0,0.0,0.919,-0.42,-0.234,-0.783,-3.109,2.125,-0.75
2025-08-02T16:45:17.469580,0,51870,0,0,0.0,0.0,0.917,-0.43,-0.225,-0.778,-7.812,-0.25,0.219
2025-08-02T16:45:17.514600,0,51920,0,0,0.0,0.0,0.918,-0.423,-0.235,-0.78,-1.969,-2.031,2.297
2025-08-02T16:45:17.559444,0,51970,0,0,0.0,0.0,0.901,-0.393,-0.229,-0.777,2.656,2.281,3.672
2025-08-02T16:45:17.619475,0,52020,0,0,0.0,0.0,0.929,-0.453,-0.217,-0.782,0.219,2.594,3.734
2025-08-02T16:45:17.664465,0,52070,0,0,0.0,0.0,0.912,-0.42,-0.246,-0.771,-8.156,6.359,0.438
2025-08-02T16:45:17.709571,0,52120,0,0,0.0,0.0,0.914,-0.411,-0.243,-0.779,-12.766,5.984,-4.688
2025-08-02T16:45:17.769631,0,52170,0,0,0.0,0.0,0.924,-0.446,-0.224,-0.778,-17.5,-2.625,-9.719
2025-08-02T16:45:17.814593,0,52220,0,0,0.0,0.0,0.907,-0.385,-0.21,-0.794,-14.922,1.922,-5.25
2025-08-02T16:45:17.859497,0,52270,0,0,0.0,0.0,0.914,-0.424,-0.225,-0.778,-8.125,3.422,6.281
2025-08-02T16:45:17.919444,0,52320,0,0,0.0,0.0,0.92,-0.405,-0.224,-0.795,0.828,6.078,5.219
2025-08-02T16:45:17.964464,0,52370,0,0,0.0,0.0,0.926,-0.428,-0.136,-0.81,1.109,0.625,4.281
2025-08-02T16:45:18.009446,0,52420,0,0,0.0,0.0,0.923,-0.418,-0.214,-0.795,6.969,3.797,4.953
2025-08-02T16:45:18.069687,0,52470,0,0,0.0,0.0,0.912,-0.428,-0.271,-0.759,8.016,7.828,-2.297
2025-08-02T16:45:18.114622,0,52520,0,0,0.0,0.0,0.904,-0.389,-0.24,-0.78,2.203,1.516,-7.5
2025-08-02T16:45:18.159594,0,52570,0,0,0.0,0.0,0.929,-0.421,-0.193,-0.806,-3.906,2.391,-5.359
2025-08-02T16:45:18.219613,0,52620,0,0,0.0,0.0,0.918,-0.41,-0.231,-0.788,-10.562,4.188,0.406
2025-08-02T16:45:18.264627,0,52670,0,0,0.0,0.0,0.912,-0.401,-0.236,-0.784,-14.281,7.844,0.969
2025-08-02T16:45:18.324618,0,52720,0,0,0.0,0.0,0.922,-0.416,-0.206,-0.796,-14.047,11.062,1.922
2025-08-02T16:45:18.369554,0,52770,0,0,0.0,0.0,0.913,-0.39,-0.205,-0.8,-12.797,4.375,2.484
2025-08-02T16:45:18.414605,0,52820,0,0,0.0,0.0,0.92,-0.405,-0.2,-0.801,-11.891,5.812,3.969
2025-08-02T16:45:18.459583,0,52870,0,0,0.0,0.0,0.919,-0.397,-0.193,-0.806,-11.594,6.797,5.875
2025-08-02T16:45:18.519593,0,52920,0,0,0.0,0.0,0.925,-0.407,-0.192,-0.808,-10.141,6.516,8.125
2025-08-02T16:45:18.564563,0,52970,0,0,0.0,0.0,0.925,-0.403,-0.189,-0.811,-6.984,11.109,4.828
2025-08-02T16:45:18.609491,0,53020,0,0,0.0,0.0,0.923,-0.397,-0.178,-0.814,-3.688,2.391,1.562
2025-08-02T16:45:18.684616,0,53070,0,0,0.0,0.0,0.93,-0.394,-0.184,-0.823,-1.891,14.219,0.906
2025-08-02T16:45:18.729636,0,53120,0,0,0.0,0.0,0.914,-0.377,-0.198,-0.808,0.797,-0.828,1.625
2025-08-02T16:45:18.759414,0,53170,0,0,0.0,0.0,0.918,-0.397,-0.193,-0.804,2.812,2.312,0.953
2025-08-02T16:45:18.834594,0,53220,0,0,0.0,0.0,0.914,-0.382,-0.19,-0.808,4.375,-6.812,-0.234
2025-08-02T16:45:18.864437,0,53270,0,0,0.0,0.0,0.927,-0.413,-0.181,-0.81,5.25,0.141,1.953
2025-08-02T16:45:18.909531,0,53320,0,0,0.0,0.0,0.924,-0.402,-0.193,-0.809,6.141,13.203,8.297
2025-08-02T16:45:18.969574,0,53370,0,0,0.0,0.0,0.922,-0.4,-0.205,-0.805,7.562,23.875,6.703
2025-08-02T16:45:19.014489,0,53420,0,0,0.0,0.0,0.913,-0.365,-0.198,-0.813,3.359,23.922,5.797
2025-08-02T16:45:19.059591,0,53470,0,0,0.0,0.0,0.918,-0.373,-0.194,-0.816,-2.844,12.672,7.656
2025-08-02T16:45:19.119629,0,53520,0,0,0.0,0.0,0.923,-0.373,-0.188,-0.823,-4.516,10.484,9.125
2025-08-02T16:45:19.164475,0,53570,0,0,0.0,0.0,0.925,-0.378,-0.194,-0.822,-2.719,4.531,6.547
2025-08-02T16:45:19.209497,0,53620,0,0,0.0,0.0,0.916,-0.372,-0.188,-0.816,2.125,4.656,2.828
2025-08-02T16:45:19.269459,0,53670,0,0,0.0,0.0,0.922,-0.374,-0.189,-0.821,5.562,4.125,1.25
2025-08-02T16:45:19.314495,0,53720,0,0,0.0,0.0,0.917,-0.376,-0.193,-0.814,3.234,-0.141,1.219
2025-08-02T16:45:19.359507,0,53770,0,0,0.0,0.0,0.922,-0.371,-0.202,-0.82,-2.109,2.906,2.453
2025-08-02T16:45:19.419634,0,53820,0,0,0.0,0.0,0.928,-0.376,-0.193,-0.827,-2.016,5.969,-0.094
2025-08-02T16:45:19.464831,0,53870,0,0,0.0,0.0,0.922,-0.36,-0.188,-0.827,8.781,-3.203,-2.25
2025-08-02T16:45:19.509589,0,53920,0,0,0.0,0.0,0.926,-0.379,-0.193,-0.823,9.672,-1.391,1.953
2025-08-02T16:45:19.569479,0,53970,0,0,0.0,0.0,0.916,-0.369,-0.218,-0.81,9.25,0.297,0.953
2025-08-02T16:45:19.614468,0,54020,0,0,0.0,0.0,0.918,-0.377,-0.209,-0.811,4.016,0.578,1.469
2025-08-02T16:45:19.659468,0,54070,0,0,0.0,0.0,0.912,-0.365,-0.213,-0.809,2.828,3.688,3.844
2025-08-02T16:45:19.719496,0,54120,0,0,0.0,0.0,0.912,-0.372,-0.207,-0.806,2.594,5.391,4.422
2025-08-02T16:45:19.764472,0,54170,0,0,0.0,0.0,0.927,-0.375,-0.212,-0.821,2.141,8.016,4.906
2025-08-02T16:45:19.809527,0,54220,0,0,0.0,0.0,0.919,-0.366,-0.211,-0.816,-0.641,6.578,4.953
2025-08-02T16:45:19.869493,0,54270,0,0,0.0,0.0,0.922,-0.365,-0.21,-0.821,-1.016,5.984,5.141
2025-08-02T16:45:19.914512,0,54320,0,0,0.0,0.0,0.92,-0.366,-0.209,-0.818,-1.25,3.516,3.672
2025-08-02T16:45:19.959499,0,54370,0,0,0.0,0.0,0.918,-0.364,-0.204,-0.818,-0.938,1.234,2.422
2025-08-02T16:45:20.019503,0,54420,0,0,0.0,0.0,0.923,-0.375,-0.202,-0.818,-1.672,2.344,2.266
2025-08-02T16:45:20.064416,0,54470,0,0,0.0,0.0,0.918,-0.359,-0.209,-0.819,-1.344,4.016,1.203
2025-08-02T16:45:20.109395,0,54520,0,0,0.0,0.0,0.908,-0.363,-0.209,-0.805,-1.234,2.25,1.0
2025-08-02T16:45:20.184479,0,54570,0,0,0.0,0.0,0.915,-0.354,-0.205,-0.818,-2.016,2.875,-1.172
2025-08-02T16:45:20.214502,0,54620,0,0,0.0,0.0,0.92,-0.36,-0.206,-0.821,-3.938,2.406,-1.422
2025-08-02T16:45:20.274554,0,54670,0,0,0.0,0.0,0.93,-0.367,-0.208,-0.829,-2.344,1.203,-0.906
2025-08-02T16:45:20.319573,0,54720,0,0,0.0,0.0,0.917,-0.356,-0.196,-0.823,-3.953,0.328,-1.016
2025-08-02T16:45:20.364516,0,54770,0,0,0.0,0.0,0.922,-0.365,-0.202,-0.823,-3.5,0.641,-0.719
2025-08-02T16:45:20.409506,0,54820,0,0,0.0,0.0,0.922,-0.368,-0.204,-0.82,-3.531,3.625,0.047
2025-08-02T16:45:20.469623,0,54870,0,0,0.0,0.0,0.916,-0.351,-0.203,-0.822,-4.531,-0.031,-1.438
2025-08-02T16:45:20.514440,0,54920,0,0,0.0,0.0,0.92,-0.367,-0.193,-0.822,-5.688,0.047,0.391
2025-08-02T16:45:20.574496,0,54970,0,0,0.0,0.0,0.911,-0.373,-0.194,-0.809,-2.641,1.781,0.234
2025-08-02T16:45:20.619599,0,55020,0,0,0.0,0.0,0.928,-0.38,-0.204,-0.822,-2.219,-0.219,1.047
2025-08-02T16:45:20.679606,0,55070,0,0,0.0,0.0,0.928,-0.349,-0.204,-0.836,-2.156,4.656,-2.141
2025-08-02T16:45:20.709665,0,55120,0,0,0.0,0.0,0.923,-0.347,-0.194,-0.833,-2.719,2.875,-2.016
2025-08-02T16:45:20.769629,0,55170,0,0,0.0,0.0,0.923,-0.36,-0.203,-0.826,-3.562,3.328,-1.484
2025-08-02T16:45:20.814621,0,55220,0,0,0.0,0.0,0.925,-0.347,-0.201,-0.833,-2.734,5.391,-0.734
2025-08-02T16:45:20.859524,0,55270,0,0,0.0,0.0,0.919,-0.353,-0.201,-0.824,-3.562,3.141,0.938
2025-08-02T16:45:20.919523,0,55320,0,0,0.0,0.0,0.92,-0.344,-0.201,-0.829,-4.312,0.547,0.266
2025-08-02T16:45:20.964634,0,55370,0,0,0.0,0.0,0.949,-0.355,-0.197,-0.857,-3.828,1.109,-0.781
2025-08-02T16:45:21.009376,0,55420,0,0,0.0,0.0,0.915,-0.352,-0.193,-0.822,-2.688,0.062,0.078
2025-08-02T16:45:21.084598,0,55470,0,0,0.0,0.0,0.931,-0.365,-0.194,-0.834,-4.406,6.266,-3.062
2025-08-02T16:45:21.114502,0,55520,0,0,0.0,0.0,0.925,-0.353,-0.194,-0.833,-2.094,-3.906,-0.469
2025-08-02T16:45:21.159484,0,55570,0,0,0.0,0.0,0.925,-0.361,-0.194,-0.83,-2.75,3.016,-0.906
2025-08-02T16:45:21.219490,0,55620,0,0,0.0,0.0,0.91,-0.334,-0.196,-0.823,-1.344,4.156,-1.453
2025-08-02T16:45:21.265592,0,55670,0,0,0.0,0.0,0.928,-0.36,-0.194,-0.833,-2.453,3.766,1.0
2025-08-02T16:45:21.310123,0,55720,0,0,0.0,0.0,0.924,-0.342,-0.194,-0.836,-2.719,3.156,1.062
2025-08-02T16:45:21.369745,0,55770,0,0,0.0,0.0,0.925,-0.352,-0.193,-0.834,-2.156,4.609,-0.516
2025-08-02T16:45:21.414887,0,55820,0,0,0.0,0.0,0.91,-0.336,-0.193,-0.823,-1.984,7.0,-1.078
2025-08-02T16:45:21.459945,0,55870,0,0,0.0,0.0,0.928,-0.343,-0.194,-0.841,0.234,3.953,-2.109
2025-08-02T16:45:21.519681,0,55920,0,0,0.0,0.0,0.934,-0.358,-0.193,-0.841,-2.312,3.938,-1.344
2025-08-02T16:45:21.564615,0,55970,0,0,0.0,0.0,0.924,-0.33,-0.193,-0.841,-1.984,6.219,0.844
2025-08-02T16:45:21.609783,0,56020,0,0,0.0,0.0,0.923,-0.328,-0.197,-0.84,-4.438,12.062,-0.781
2025-08-02T16:45:21.670194,0,56070,0,0,0.0,0.0,0.925,-0.334,-0.194,-0.84,-3.438,6.594,-1.016
2025-08-02T16:45:21.714765,0,56120,0,0,0.0,0.0,0.918,-0.34,-0.199,-0.829,0.219,5.438,-0.109
2025-08-02T16:45:21.759561,0,56170,0,0,0.0,0.0,0.924,-0.332,-0.194,-0.84,-0.859,1.578,-1.453
2025-08-02T16:45:21.819871,0,56220,0,0,0.0,0.0,0.922,-0.336,-0.198,-0.835,-0.031,9.703,-1.234
2025-08-02T16:45:21.864892,0,56270,0,0,0.0,0.0,0.918,-0.316,-0.193,-0.841,-2.703,17.891,0.625
2025-08-02T16:45:21.909624,0,56320,0,0,0.0,0.0,0.919,-0.317,-0.194,-0.841,-1.031,-0.875,0.609
2025-08-02T16:45:21.969666,0,56370,0,0,0.0,0.0,0.925,-0.333,-0.193,-0.84,-1.219,5.672,-0.625
2025-08-02T16:45:22.014706,0,56420,0,0,0.0,0.0,0.916,-0.306,-0.193,-0.841,-1.516,6.812,-1.141
2025-08-02T16:45:22.059674,0,56470,0,0,0.0,0.0,0.92,-0.321,-0.194,-0.841,0.484,-3.969,0.203
2025-08-02T16:45:22.119758,0,56520,0,0,0.0,0.0,0.916,-0.307,-0.194,-0.841,-1.578,5.281,-0.781
2025-08-02T16:45:22.164613,0,56570,0,0,0.0,0.0,0.928,-0.336,-0.205,-0.84,-3.516,3.609,0.125
2025-08-02T16:45:22.209740,0,56620,0,0,0.0,0.0,0.918,-0.315,-0.193,-0.84,-2.5,-1.109,2.219
2025-08-02T16:45:22.273417,0,56670,0,0,0.0,0.0,0.916,-0.31,-0.194,-0.84,-3.641,2.734,0.484
2025-08-02T16:45:22.314752,0,56720,0,0,0.0,0.0,0.926,-0.333,-0.201,-0.841,-3.641,-1.578,0.906
2025-08-02T16:45:22.359631,0,56770,0,0,0.0,0.0,0.925,-0.326,-0.193,-0.844,-3.125,2.406,1.375
2025-08-02T16:45:22.419590,0,56820,0,0,0.0,0.0,0.917,-0.31,-0.194,-0.841,-3.422,3.703,1.797
2025-08-02T16:45:22.464581,0,56870,0,0,0.0,0.0,0.921,-0.322,-0.194,-0.841,-2.719,1.875,2.516
2025-08-02T16:45:22.509570,0,56920,0,0,0.0,0.0,0.918,-0.314,-0.192,-0.841,-4.141,3.156,1.703
2025-08-02T16:45:22.569634,0,56970,0,0,0.0,0.0,0.92,-0.322,-0.194,-0.84,-3.031,-0.516,0.328
2025-08-02T16:45:22.614686,0,57020,0,0,0.0,0.0,0.919,-0.315,-0.196,-0.841,-2.344,3.156,0.953
2025-08-02T16:45:22.660052,0,57070,0,0,0.0,0.0,0.922,-0.32,-0.193,-0.843,-3.141,2.859,2.156
2025-08-02T16:45:22.719708,0,57120,0,0,0.0,0.0,0.922,-0.315,-0.193,-0.845,-2.797,-0.156,1.297
2025-08-02T16:45:22.764559,0,57170,0,0,0.0,0.0,0.922,-0.317,-0.194,-0.844,-3.797,1.297,2.203
2025-08-02T16:45:22.809513,0,57220,0,0,0.0,0.0,0.922,-0.312,-0.193,-0.846,-3.0,1.25,2.141
2025-08-02T16:45:22.869645,0,57270,0,0,0.0,0.0,0.923,-0.316,-0.188,-0.847,-4.047,2.062,1.797
2025-08-02T16:45:22.914720,0,57320,0,0,0.0,0.0,0.92,-0.323,-0.189,-0.84,-4.188,-0.328,3.047
2025-08-02T16:45:22.959528,0,57370,0,0,0.0,0.0,0.913,-0.321,-0.188,-0.833,-2.172,0.359,2.453
2025-08-02T16:45:23.019645,0,57420,0,0,0.0,0.0,0.915,-0.31,-0.188,-0.84,-4.062,3.953,1.859
2025-08-02T16:45:23.065740,0,57470,0,0,0.0,0.0,0.924,-0.319,-0.192,-0.846,-2.734,2.094,0.922
2025-08-02T16:45:23.109636,0,57520,0,0,0.0,0.0,0.922,-0.319,-0.183,-0.846,-2.359,1.328,1.266
2025-08-02T16:45:23.169710,0,57570,0,0,0.0,0.0,0.927,-0.315,-0.187,-0.852,-2.297,0.609,-0.344
2025-08-02T16:45:23.214549,0,57620,0,0,0.0,0.0,0.927,-0.312,-0.191,-0.852,-2.047,1.844,0.938
2025-08-02T16:45:23.259644,0,57670,0,0,0.0,0.0,0.92,-0.313,-0.186,-0.845,-2.219,1.266,0.844
2025-08-02T16:45:23.319623,0,57720,0,0,0.0,0.0,0.916,-0.318,-0.178,-0.841,-2.359,4.031,1.109
2025-08-02T16:45:23.364679,0,57770,0,0,0.0,0.0,0.916,-0.312,-0.189,-0.84,-1.922,-1.172,0.953
2025-08-02T16:45:23.409613,0,57820,0,0,0.0,0.0,0.922,-0.316,-0.183,-0.847,-1.656,2.797,-0.047
2025-08-02T16:45:23.469778,0,57870,0,0,0.0,0.0,0.917,-0.321,-0.181,-0.84,-3.625,0.547,-0.203
2025-08-02T16:45:23.514678,0,57920,0,0,0.0,0.0,0.922,-0.312,-0.18,-0.848,-3.375,0.219,0.969
2025-08-02T16:45:23.559731,0,57970,0,0,0.0,0.0,0.923,-0.323,-0.184,-0.844,-2.891,1.062,1.094
2025-08-02T16:45:23.619686,0,58020,0,0,0.0,0.0,0.925,-0.309,-0.18,-0.854,-3.312,1.188,-0.047
2025-08-02T16:45:23.664533,0,58070,0,0,0.0,0.0,0.922,-0.32,-0.179,-0.847,-3.0,1.453,0.484
2025-08-02T16:45:23.709605,0,58120,0,0,0.0,0.0,0.921,-0.312,-0.181,-0.847,-2.297,2.969,1.391
2025-08-02T16:45:23.769659,0,58170,0,0,0.0,0.0,0.919,-0.315,-0.174,-0.845,-3.297,0.031,0.875
2025-08-02T16:45:23.814746,0,58220,0,0,0.0,0.0,0.919,-0.313,-0.177,-0.846,-3.641,1.375,-0.047
2025-08-02T16:45:23.859586,0,58270,0,0,0.0,0.0,0.925,-0.319,-0.177,-0.85,-3.516,1.234,1.359
2025-08-02T16:45:23.919605,0,58320,0,0,0.0,0.0,0.919,-0.316,-0.174,-0.846,-3.125,0.125,0.594
2025-08-02T16:45:23.964977,0,58370,0,0,0.0,0.0,0.923,-0.312,-0.174,-0.851,-2.453,1.672,-0.188
2025-08-02T16:45:24.009747,0,58420,0,0,0.0,0.0,0.925,-0.32,-0.177,-0.85,-2.609,0.609,0.219
2025-08-02T16:45:24.069549,0,58470,0,0,0.0,0.0,0.924,-0.314,-0.179,-0.851,-2.359,1.328,0.453
2025-08-02T16:45:24.114543,0,58520,0,0,0.0,0.0,0.924,-0.319,-0.171,-0.85,-3.172,3.562,0.234
2025-08-02T16:45:24.159637,0,58570,0,0,0.0,0.0,0.923,-0.314,-0.177,-0.85,-3.078,-2.25,0.828
2025-08-02T16:45:24.219467,0,58620,0,0,0.0,0.0,0.919,-0.319,-0.175,-0.844,-2.234,3.156,1.172
2025-08-02T16:45:24.264561,0,58670,0,0,0.0,0.0,0.923,-0.316,-0.171,-0.85,-2.344,-0.797,0.703
2025-08-02T16:45:24.309405,0,58720,0,0,0.0,0.0,0.924,-0.31,-0.173,-0.853,-2.328,0.875,1.312
2025-08-02T16:45:24.369396,0,58770,0,0,0.0,0.0,0.927,-0.316,-0.173,-0.854,-2.453,1.953,0.609
2025-08-02T16:45:24.414490,0,58820,0,0,0.0,0.0,0.926,-0.311,-0.175,-0.854,-1.25,0.078,-0.203
2025-08-02T16:45:24.459372,0,58870,0,0,0.0,0.0,0.926,-0.319,-0.172,-0.852,-0.922,1.172,0.141
2025-08-02T16:45:24.519485,0,58920,0,0,0.0,0.0,0.922,-0.312,-0.173,-0.85,-1.0,0.172,-0.234
2025-08-02T16:45:24.564364,0,58970,0,0,0.0,0.0,0.924,-0.321,-0.172,-0.85,-1.469,2.406,0.391
2025-08-02T16:45:24.624655,0,59020,0,0,0.0,0.0,0.915,-0.315,-0.173,-0.841,-0.953,-0.188,1.078
2025-08-02T16:45:24.669499,0,59070,0,0,0.0,0.0,0.921,-0.316,-0.172,-0.848,-0.859,1.453,0.5
2025-08-02T16:45:24.714646,0,59120,0,0,0.0,0.0,0.924,-0.319,-0.172,-0.85,-2.406,-1.203,1.391
2025-08-02T16:45:24.774532,0,59170,0,0,0.0,0.0,0.927,-0.31,-0.174,-0.856,-2.734,2.984,0.641
2025-08-02T16:45:24.819495,0,59220,0,0,0.0,0.0,0.93,-0.321,-0.169,-0.856,-1.484,0.172,1.484
2025-08-02T16:45:24.864548,0,59270,0,0,0.0,0.0,0.926,-0.31,-0.173,-0.855,-0.875,0.625,-1.062
2025-08-02T16:45:24.909599,0,59320,0,0,0.0,0.0,0.922,-0.314,-0.172,-0.85,-0.734,2.297,-3.875
2025-08-02T16:45:24.969534,0,59370,0,0,0.0,0.0,0.924,-0.32,-0.171,-0.85,-1.141,1.281,1.031
2025-08-02T16:45:25.014559,0,59420,0,0,0.0,0.0,0.92,-0.315,-0.172,-0.847,-2.156,3.203,1.094
2025-08-02T16:45:25.059527,0,59470,0,0,0.0,0.0,0.92,-0.323,-0.172,-0.844,-1.188,0.516,0.016
2025-08-02T16:45:25.119571,0,59520,0,0,0.0,0.0,0.914,-0.304,-0.17,-0.845,-0.719,0.078,-0.734
2025-08-02T16:45:25.164439,0,59570,0,0,0.0,0.0,0.925,-0.323,-0.174,-0.849,-1.156,1.938,0.062
2025-08-02T16:45:25.209565,0,59620,0,0,0.0,0.0,0.921,-0.311,-0.176,-0.85,-1.484,0.172,-0.172
2025-08-02T16:45:25.284538,0,59670,0,0,0.0,0.0,0.928,-0.317,-0.174,-0.855,-1.688,2.797,0.766
2025-08-02T16:45:25.314450,0,59720,0,0,0.0,0.0,0.925,-0.317,-0.176,-0.851,-0.594,1.328,1.125
2025-08-02T16:45:25.359553,0,59770,0,0,0.0,0.0,0.914,-0.31,-0.175,-0.842,-0.5,0.891,0.656
2025-08-02T16:45:25.419700,0,59820,0,0,0.0,0.0,0.926,-0.319,-0.174,-0.852,-2.125,2.281,-0.031
2025-08-02T16:45:25.479557,0,59870,0,0,0.0,0.0,0.809,-0.278,-0.176,-0.739,15.984,1.031,0.109
2025-08-02T16:45:25.509662,0,59920,0,0,0.0,0.0,0.863,-0.273,-0.194,-0.795,4.672,10.078,-5.516
2025-08-02T16:45:25.569514,0,59970,0,0,0.0,0.0,0.935,-0.339,-0.173,-0.854,0.156,-2.234,0.469
2025-08-02T16:45:25.614673,0,60020,0,0,0.0,0.0,0.905,-0.293,-0.161,-0.841,-0.203,-1.766,-1.609
2025-08-02T16:45:25.659569,0,60070,0,0,0.0,0.0,0.926,-0.334,-0.193,-0.842,-0.375,2.609,0.438
2025-08-02T16:45:25.719681,0,60120,0,0,0.0,0.0,0.923,-0.302,-0.169,-0.855,-0.625,-0.719,0.641
2025-08-02T16:45:25.764665,0,60170,0,0,0.0,0.0,0.922,-0.321,-0.169,-0.848,-1.188,3.5,-0.266
2025-08-02T16:45:25.809564,0,60220,0,0,0.0,0.0,0.916,-0.306,-0.178,-0.845,-1.734,1.156,0.516
2025-08-02T16:45:25.869557,0,60270,0,0,0.0,0.0,0.922,-0.323,-0.177,-0.845,-1.516,2.766,1.922
2025-08-02T16:45:25.914547,0,60320,0,0,0.0,0.0,0.918,-0.306,-0.173,-0.848,-1.609,1.203,0.531
2025-08-02T16:45:25.959465,0,60370,0,0,0.0,0.0,0.924,-0.324,-0.175,-0.847,-2.172,3.031,1.125
2025-08-02T16:45:26.019688,0,60420,0,0,0.0,0.0,0.922,-0.306,-0.175,-0.852,-2.375,-0.312,1.094
2025-08-02T16:45:26.064577,0,60470,0,0,0.0,0.0,0.934,-0.311,-0.181,-0.862,-2.047,1.25,1.562
2025-08-02T16:45:26.109555,0,60520,0,0,0.0,0.0,0.927,-0.322,-0.177,-0.851,-1.5,0.438,1.641
2025-08-02T16:45:26.169557,0,60570,0,0,0.0,0.0,0.922,-0.306,-0.171,-0.853,-1.609,0.906,0.219
2025-08-02T16:45:26.214524,0,60620,0,0,0.0,0.0,0.919,-0.314,-0.17,-0.847,-1.547,2.156,0.812
2025-08-02T16:45:26.259526,0,60670,0,0,0.0,0.0,0.918,-0.313,-0.169,-0.846,-2.625,2.031,2.531
2025-08-02T16:45:26.319983,0,60720,0,0,0.0,0.0,0.92,-0.31,-0.17,-0.85,-1.938,2.672,0.734
2025-08-02T16:45:26.365176,0,60770,0,0,0.0,0.0,0.922,-0.315,-0.173,-0.849,-1.281,0.766,-0.484
2025-08-02T16:45:26.409705,0,60820,0,0,0.0,0.0,0.923,-0.307,-0.175,-0.853,-1.641,0.484,0.219
2025-08-02T16:45:26.469590,0,60870,0,0,0.0,0.0,0.919,-0.322,-0.162,-0.845,-3.156,2.5,2.844
2025-08-02T16:45:26.514640,0,60920,0,0,0.0,0.0,0.922,-0.303,-0.173,-0.854,-2.078,1.031,1.484
2025-08-02T16:45:26.559687,0,60970,0,0,0.0,0.0,0.952,-0.315,-0.172,-0.881,-4.031,2.734,0.203
2025-08-02T16:45:26.619724,0,61020,0,0,0.0,0.0,0.917,-0.312,-0.167,-0.846,-1.625,1.203,0.781
2025-08-02T16:45:26.664597,0,61070,0,0,0.0,0.0,0.92,-0.303,-0.166,-0.853,-1.969,1.219,0.891
2025-08-02T16:45:26.709665,0,61120,0,0,0.0,0.0,0.957,-0.312,-0.172,-0.888,-3.438,-4.297,0.078
2025-08-02T16:45:26.769612,0,61170,0,0,0.0,0.0,0.909,-0.297,-0.168,-0.843,-2.375,1.734,0.422
2025-08-02T16:45:26.814832,0,61220,0,0,0.0,0.0,0.918,-0.309,-0.167,-0.849,-1.906,1.469,-1.547
2025-08-02T16:45:26.859580,0,61270,0,0,0.0,0.0,0.927,-0.319,-0.173,-0.853,-1.781,0.984,1.031
2025-08-02T16:45:26.919732,0,61320,0,0,0.0,0.0,0.924,-0.315,-0.172,-0.851,-3.078,-3.797,1.344
2025-08-02T16:45:26.964725,0,61370,0,0,0.0,0.0,0.934,-0.326,-0.169,-0.859,-1.812,-3.203,0.312
2025-08-02T16:45:27.024555,0,61420,0,0,0.0,0.0,0.911,-0.304,-0.167,-0.842,1.766,0.0,-0.422
2025-08-02T16:45:27.069700,0,61470,0,0,0.0,0.0,0.929,-0.321,-0.17,-0.855,-2.078,1.422,-0.141
2025-08-02T16:45:27.114593,0,61520,0,0,0.0,0.0,0.929,-0.325,-0.179,-0.852,-0.922,0.953,2.859
2025-08-02T16:45:27.159716,0,61570,0,0,0.0,0.0,0.925,-0.324,-0.172,-0.849,-3.141,-1.562,3.047
2025-08-02T16:45:27.219622,0,61620,0,0,0.0,0.0,0.918,-0.313,-0.165,-0.847,-3.875,0.875,0.516
2025-08-02T16:45:27.264593,0,61670,0,0,0.0,0.0,0.927,-0.312,-0.161,-0.858,-3.328,3.703,1.188
2025-08-02T16:45:27.309679,0,61720,0,0,0.0,0.0,0.93,-0.324,-0.165,-0.856,-3.609,-0.781,2.281
2025-08-02T16:45:27.369573,0,61770,0,0,0.0,0.0,0.922,-0.309,-0.167,-0.853,-1.938,0.594,0.734
2025-08-02T16:45:27.414672,0,61820,0,0,0.0,0.0,0.933,-0.318,-0.173,-0.86,-3.234,2.484,-0.766
2025-08-02T16:45:27.459525,0,61870,0,0,0.0,0.0,0.932,-0.32,-0.166,-0.86,-2.016,1.734,1.875
2025-08-02T16:45:27.519520,0,61920,0,0,0.0,0.0,0.921,-0.313,-0.161,-0.851,-2.391,2.938,0.391
2025-08-02T16:45:27.564678,0,61970,0,0,0.0,0.0,0.929,-0.319,-0.167,-0.856,-2.047,0.547,-0.703
2025-08-02T16:45:27.609710,0,62020,0,0,0.0,0.0,0.921,-0.305,-0.166,-0.853,-1.609,4.188,-1.078
2025-08-02T16:45:27.669707,0,62070,0,0,0.0,0.0,0.926,-0.31,-0.16,-0.858,-2.625,4.781,-1.234
2025-08-02T16:45:27.714648,0,62120,0,0,0.0,0.0,0.928,-0.308,-0.168,-0.859,-1.953,2.609,-0.734
2025-08-02T16:45:27.759560,0,62170,0,0,0.0,0.0,0.933,-0.307,-0.165,-0.865,-0.062,3.547,-1.0
2025-08-02T16:45:27.819648,0,62220,0,0,0.0,0.0,0.922,-0.315,-0.168,-0.849,-0.062,3.984,-1.25
2025-08-02T16:45:27.864558,0,62270,0,0,0.0,0.0,0.912,-0.311,-0.166,-0.841,-1.203,5.188,0.031
2025-08-02T16:45:27.909543,0,62320,0,0,0.0,0.0,0.914,-0.292,-0.155,-0.853,-1.156,2.0,-0.125
2025-08-02T16:45:27.969671,0,62370,0,0,0.0,0.0,0.922,-0.319,-0.163,-0.85,-1.75,2.859,-2.109
2025-08-02T16:45:28.014666,0,62420,0,0,0.0,0.0,0.918,-0.315,-0.185,-0.842,-1.484,6.594,-1.281
2025-08-02T16:45:28.059692,0,62470,0,0,0.0,0.0,0.912,-0.29,-0.154,-0.851,-1.172,-0.891,-0.109
2025-08-02T16:45:28.119443,0,62520,0,0,0.0,0.0,0.95,-0.303,-0.164,-0.885,-4.75,3.594,0.109
2025-08-02T16:45:28.164690,0,62570,0,0,0.0,0.0,0.924,-0.293,-0.165,-0.86,-0.812,1.438,-1.219
2025-08-02T16:45:28.209692,0,62620,0,0,0.0,0.0,0.923,-0.309,-0.159,-0.855,-1.891,5.531,-2.188
2025-08-02T16:45:28.269653,0,62670,0,0,0.0,0.0,0.911,-0.319,-0.188,-0.833,-1.484,5.562,-3.266
2025-08-02T16:45:28.314519,0,62720,0,0,0.0,0.0,0.919,-0.295,-0.179,-0.852,2.141,-1.406,2.094
2025-08-02T16:45:28.359587,0,62770,0,0,0.0,0.0,0.893,-0.317,-0.16,-0.82,2.234,6.484,-0.375
2025-08-02T16:45:28.419721,0,62820,0,0,0.0,0.0,0.913,-0.265,-0.159,-0.859,-1.344,2.375,-3.406
2025-08-02T16:45:28.464663,0,62870,0,0,0.0,0.0,0.916,-0.31,-0.161,-0.847,-0.094,2.312,-2.266
2025-08-02T16:45:28.509570,0,62920,0,0,0.0,0.0,0.901,-0.263,-0.161,-0.846,-3.5,-0.234,-4.781
2025-08-02T16:45:28.569694,0,62970,0,0,0.0,0.0,0.934,-0.316,-0.177,-0.861,-1.172,-1.141,-0.203
2025-08-02T16:45:28.614559,0,63020,0,0,0.0,0.0,0.915,-0.282,-0.173,-0.853,3.828,1.188,1.547
2025-08-02T16:45:28.659597,0,63070,0,0,0.0,0.0,0.922,-0.3,-0.177,-0.854,-0.766,0.391,1.188
2025-08-02T16:45:28.719595,0,63120,0,0,0.0,0.0,0.922,-0.293,-0.177,-0.856,-0.906,-0.5,1.906
2025-08-02T16:45:28.764824,0,63170,0,0,0.0,0.0,0.929,-0.302,-0.164,-0.863,-1.469,0.672,1.594
2025-08-02T16:45:28.809733,0,63220,0,0,0.0,0.0,0.925,-0.291,-0.175,-0.86,2.0,-0.703,2.078
2025-08-02T16:45:28.869689,0,63270,0,0,0.0,0.0,0.92,-0.3,-0.176,-0.852,-0.812,2.297,-0.156
2025-08-02T16:45:28.914562,0,63320,0,0,0.0,0.0,0.916,-0.285,-0.162,-0.855,3.0,-0.078,1.125
2025-08-02T16:45:28.974578,0,63370,0,0,0.0,0.0,0.927,-0.301,-0.171,-0.86,-2.234,1.906,0.016
2025-08-02T16:45:29.019705,0,63420,0,0,0.0,0.0,0.95,-0.298,-0.185,-0.883,-1.562,-4.312,0.531
2025-08-02T16:45:29.064531,0,63470,0,0,0.0,0.0,0.937,-0.308,-0.176,-0.867,-1.891,1.391,3.609
2025-08-02T16:45:29.109664,0,63520,0,0,0.0,0.0,0.92,-0.287,-0.159,-0.86,-0.391,0.578,2.453
2025-08-02T16:45:29.169653,0,63570,0,0,0.0,0.0,0.92,-0.304,-0.165,-0.853,1.719,0.578,0.906
2025-08-02T16:45:29.214796,0,63620,0,0,0.0,0.0,0.926,-0.297,-0.173,-0.86,-1.844,-1.672,0.422
2025-08-02T16:45:29.259720,0,63670,0,0,0.0,0.0,0.928,-0.302,-0.174,-0.86,-1.781,-1.359,1.234
2025-08-02T16:45:29.334675,0,63720,0,0,0.0,0.0,0.924,-0.292,-0.169,-0.86,-3.078,1.266,2.25
2025-08-02T16:45:29.379818,0,63770,0,0,0.0,0.0,0.922,-0.299,-0.17,-0.856,-2.656,-1.641,1.891
2025-08-02T16:45:29.409849,0,63820,0,0,0.0,0.0,0.929,-0.316,-0.166,-0.858,-1.938,-1.531,-0.234
2025-08-02T16:45:29.484667,0,63870,0,0,0.0,0.0,0.924,-0.293,-0.167,-0.86,-1.219,1.297,0.109
2025-08-02T16:45:29.514525,0,63920,0,0,0.0,0.0,0.923,-0.311,-0.165,-0.853,-2.078,4.516,0.625
2025-08-02T16:45:29.559685,0,63970,0,0,0.0,0.0,0.92,-0.291,-0.175,-0.855,-1.234,1.625,0.734
2025-08-02T16:45:29.619741,0,64020,0,0,0.0,0.0,0.923,-0.314,-0.169,-0.851,-1.328,1.391,0.297
2025-08-02T16:45:29.664619,0,64070,0,0,0.0,0.0,0.93,-0.308,-0.167,-0.861,-3.938,1.953,0.797
2025-08-02T16:45:29.709635,0,64120,0,0,0.0,0.0,0.93,-0.305,-0.16,-0.864,-4.5,1.734,1.875
2025-08-02T16:45:29.769806,0,64170,0,0,0.0,0.0,0.926,-0.303,-0.165,-0.859,-3.547,-2.031,1.656
2025-08-02T16:45:29.814741,0,64220,0,0,0.0,0.0,0.929,-0.3,-0.175,-0.862,-2.156,0.969,0.234
2025-08-02T16:45:29.859623,0,64270,0,0,0.0,0.0,0.93,-0.306,-0.162,-0.863,-3.188,0.047,0.516
2025-08-02T16:45:29.919711,0,64320,0,0,0.0,0.0,0.922,-0.297,-0.165,-0.857,-3.391,2.328,1.297
2025-08-02T16:45:29.964711,0,64370,0,0,0.0,0.0,0.926,-0.306,-0.165,-0.858,-3.484,2.703,3.328
2025-08-02T16:45:30.009712,0,64420,0,0,0.0,0.0,0.921,-0.302,-0.166,-0.854,-3.734,1.0,0.75
2025-08-02T16:45:30.069627,0,64470,0,0,0.0,0.0,0.933,-0.308,-0.156,-0.867,-3.203,1.406,0.984
2025-08-02T16:45:30.114721,0,64520,0,0,0.0,0.0,0.922,-0.304,-0.152,-0.857,-6.562,-4.109,0.0
2025-08-02T16:45:30.159604,0,64570,0,0,0.0,0.0,0.927,-0.3,-0.161,-0.862,-4.703,2.344,0.672
2025-08-02T16:45:30.219697,0,64620,0,0,0.0,0.0,0.925,-0.303,-0.156,-0.86,-4.625,-0.484,0.5
2025-08-02T16:45:30.264578,0,64670,0,0,0.0,0.0,0.924,-0.296,-0.157,-0.861,-2.922,-1.047,0.781
2025-08-02T16:45:30.309743,0,64720,0,0,0.0,0.0,0.936,-0.323,-0.149,-0.865,-2.406,-1.719,2.266
2025-08-02T16:45:30.369610,0,64770,0,0,0.0,0.0,0.921,-0.296,-0.149,-0.859,-0.797,0.922,1.859
2025-08-02T16:45:30.414584,0,64820,0,0,0.0,0.0,0.926,-0.317,-0.16,-0.855,0.5,-0.719,1.703
2025-08-02T16:45:30.459605,0,64870,0,0,0.0,0.0,0.918,-0.304,-0.153,-0.853,-0.797,1.5,0.625
2025-08-02T16:45:30.519699,0,64920,0,0,0.0,0.0,0.923,-0.303,-0.156,-0.858,-0.328,-0.125,2.094
2025-08-02T16:45:30.564595,0,64970,0,0,0.0,0.0,0.925,-0.309,-0.156,-0.858,-2.297,0.578,2.188
2025-08-02T16:45:30.609591,0,65020,0,0,0.0,0.0,0.929,-0.316,-0.153,-0.86,-1.844,1.953,2.375
2025-08-02T16:45:30.684623,0,65070,0,0,0.0,0.0,0.928,-0.308,-0.152,-0.863,-2.547,1.922,1.0
2025-08-02T16:45:30.714467,0,65120,0,0,0.0,0.0,0.93,-0.309,-0.151,-0.864,-2.891,2.5,1.422
2025-08-02T16:45:30.759543,0,65170,0,0,0.0,0.0,0.925,-0.309,-0.154,-0.858,-2.5,2.844,1.25
2025-08-02T16:45:30.819532,0,65220,0,0,0.0,0.0,0.919,-0.303,-0.152,-0.855,-2.0,2.688,1.281
2025-08-02T16:45:30.864447,0,65270,0,0,0.0,0.0,0.923,-0.312,-0.152,-0.855,-1.75,1.0,2.156
2025-08-02T16:45:30.909399,0,65320,0,0,0.0,0.0,0.923,-0.302,-0.147,-0.86,-3.516,2.609,0.766
2025-08-02T16:45:30.969407,0,65370,0,0,0.0,0.0,0.926,-0.304,-0.149,-0.862,-2.5,0.812,0.547
2025-08-02T16:45:31.014393,0,65420,0,0,0.0,0.0,0.928,-0.308,-0.153,-0.862,-2.109,0.797,0.078
2025-08-02T16:45:31.059523,0,65470,0,0,0.0,0.0,0.929,-0.303,-0.151,-0.865,-0.938,0.391,-0.953
2025-08-02T16:45:31.119510,0,65520,0,0,0.0,0.0,0.931,-0.306,-0.148,-0.866,-1.938,2.375,-1.5
2025-08-02T16:45:31.164408,0,65570,0,0,0.0,0.0,0.931,-0.306,-0.153,-0.865,-1.266,1.281,0.844
2025-08-02T16:45:31.209507,0,65620,0,0,0.0,0.0,0.929,-0.308,-0.151,-0.863,-1.422,1.469,-0.438
2025-08-02T16:45:31.269523,0,65670,0,0,0.0,0.0,0.924,-0.3,-0.149,-0.861,-0.938,2.609,-1.609
2025-08-02T16:45:31.314510,0,65720,0,0,0.0,0.0,0.926,-0.306,-0.155,-0.86,-1.516,1.781,-1.062
2025-08-02T16:45:31.359513,0,65770,0,0,0.0,0.0,0.923,-0.3,-0.151,-0.86,-1.656,2.5,-0.812
2025-08-02T16:45:31.419505,0,65820,0,0,0.0,0.0,0.929,-0.307,-0.158,-0.863,-1.828,1.828,-0.422
2025-08-02T16:45:31.464410,0,65870,0,0,0.0,0.0,0.927,-0.294,-0.155,-0.865,-2.719,3.094,0.141
2025-08-02T16:45:31.509507,0,65920,0,0,0.0,0.0,0.923,-0.305,-0.152,-0.858,-1.359,-0.234,0.531
2025-08-02T16:45:31.569409,0,65970,0,0,0.0,0.0,0.925,-0.298,-0.153,-0.863,-3.047,1.984,0.328
2025-08-02T16:45:31.614392,0,66020,0,0,0.0,0.0,0.93,-0.302,-0.15,-0.867,-3.359,0.891,2.484
2025-08-02T16:45:31.659405,0,66070,0,0,0.0,0.0,0.917,-0.296,-0.151,-0.854,-1.531,1.688,0.312
2025-08-02T16:45:31.719408,0,66120,0,0,0.0,0.0,0.922,-0.297,-0.15,-0.86,-1.906,3.047,0.156
2025-08-02T16:45:31.764413,0,66170,0,0,0.0,0.0,0.927,-0.307,-0.146,-0.862,-3.047,0.531,0.906
2025-08-02T16:45:31.809395,0,66220,0,0,0.0,0.0,0.923,-0.299,-0.146,-0.862,-3.625,3.312,0.578
2025-08-02T16:45:31.869407,0,66270,0,0,0.0,0.0,0.93,-0.3,-0.147,-0.868,-2.891,2.844,0.438
2025-08-02T16:45:31.914506,0,66320,0,0,0.0,0.0,0.925,-0.298,-0.149,-0.863,-3.312,0.781,-0.047
2025-08-02T16:45:31.959405,0,66370,0,0,0.0,0.0,0.93,-0.297,-0.147,-0.869,-1.734,2.812,0.562
2025-08-02T16:45:32.019827,0,66420,0,0,0.0,0.0,0.928,-0.302,-0.151,-0.864,-1.875,-0.141,0.766
2025-08-02T16:45:32.064403,0,66470,0,0,0.0,0.0,0.924,-0.288,-0.149,-0.865,-2.344,4.0,0.875
2025-08-02T16:45:32.109399,0,66520,0,0,0.0,0.0,0.924,-0.304,-0.143,-0.861,-1.719,1.656,1.109
2025-08-02T16:45:32.169438,0,66570,0,0,0.0,0.0,0.923,-0.296,-0.146,-0.862,-3.422,1.703,0.188
2025-08-02T16:45:32.214408,0,66620,0,0,0.0,0.0,0.93,-0.299,-0.144,-0.868,-3.828,2.547,1.75
2025-08-02T16:45:32.259412,0,66670,0,0,0.0,0.0,0.929,-0.301,-0.146,-0.866,-2.672,0.516,2.734
2025-08-02T16:45:32.319401,0,66720,0,0,0.0,0.0,0.928,-0.295,-0.141,-0.869,-1.859,1.094,0.219
2025-08-02T16:45:32.364520,0,66770,0,0,0.0,0.0,0.927,-0.291,-0.145,-0.868,-2.047,0.141,-0.125
2025-08-02T16:45:32.409510,0,66820,0,0,0.0,0.0,0.928,-0.299,-0.142,-0.866,-2.0,2.062,-0.234
2025-08-02T16:45:32.469406,0,66870,0,0,0.0,0.0,0.928,-0.299,-0.145,-0.866,-2.172,0.703,0.641
2025-08-02T16:45:32.514510,0,66920,0,0,0.0,0.0,0.922,-0.295,-0.143,-0.862,-2.016,1.156,-0.312
2025-08-02T16:45:32.559411,0,66970,0,0,0.0,0.0,0.922,-0.296,-0.141,-0.862,-2.734,1.312,3.672
2025-08-02T16:45:32.619515,0,67020,0,0,0.0,0.0,0.929,-0.302,-0.143,-0.867,-2.406,-0.531,1.078
2025-08-02T16:45:32.664414,0,67070,0,0,0.0,0.0,0.931,-0.299,-0.143,-0.87,-2.984,0.062,0.094
2025-08-02T16:45:32.709411,0,67120,0,0,0.0,0.0,0.927,-0.294,-0.14,-0.868,-2.875,1.891,0.188
2025-08-02T16:45:32.769423,0,67170,0,0,0.0,0.0,0.938,-0.308,-0.163,-0.871,-0.781,1.234,1.625
2025-08-02T16:45:32.814519,0,67220,0,0,0.0,0.0,0.929,-0.29,-0.118,-0.875,-3.469,2.906,-0.25
2025-08-02T16:45:32.859527,0,67270,0,0,0.0,0.0,0.934,-0.305,-0.154,-0.869,-1.219,-0.391,2.312
2025-08-02T16:45:32.919530,0,67320,0,0,0.0,0.0,0.921,-0.293,-0.141,-0.862,-1.859,-0.375,-0.297
2025-08-02T16:45:32.964527,0,67370,0,0,0.0,0.0,0.926,-0.299,-0.143,-0.864,-2.391,3.156,-2.0
2025-08-02T16:45:33.009519,0,67420,0,0,0.0,0.0,0.928,-0.304,-0.138,-0.865,-2.172,-1.672,0.625
2025-08-02T16:45:33.069530,0,67470,0,0,0.0,0.0,0.923,-0.294,-0.141,-0.863,-3.125,-0.547,1.531
2025-08-02T16:45:33.114517,0,67520,0,0,0.0,0.0,0.929,-0.299,-0.14,-0.868,-3.25,0.828,-0.594
2025-08-02T16:45:33.159525,0,67570,0,0,0.0,0.0,0.936,-0.307,-0.14,-0.873,-2.609,0.812,-0.781
2025-08-02T16:45:33.219411,0,67620,0,0,0.0,0.0,0.928,-0.29,-0.136,-0.871,-2.094,1.172,0.984
2025-08-02T16:45:33.264532,0,67670,0,0,0.0,0.0,0.927,-0.303,-0.139,-0.865,-2.25,-0.719,1.312
2025-08-02T16:45:33.309405,0,67720,0,0,0.0,0.0,0.925,-0.287,-0.142,-0.868,-1.047,0.797,0.984
2025-08-02T16:45:33.369840,0,67770,0,0,0.0,0.0,0.922,-0.304,-0.137,-0.86,-0.875,0.562,0.062
2025-08-02T16:45:33.414516,0,67820,0,0,0.0,0.0,0.919,-0.298,-0.135,-0.859,-1.656,-1.406,0.219
2025-08-02T16:45:33.474533,0,67870,0,0,0.0,0.0,0.922,-0.295,-0.136,-0.862,-2.797,-7.094,1.312
2025-08-02T16:45:33.519843,0,67920,0,0,0.0,0.0,0.929,-0.307,-0.142,-0.865,-1.5,-2.688,0.609
2025-08-02T16:45:33.579534,0,67970,0,0,0.0,0.0,0.93,-0.3,-0.142,-0.869,-1.828,0.859,-0.469
2025-08-02T16:45:33.609410,0,68020,0,0,0.0,0.0,0.933,-0.31,-0.136,-0.869,-1.531,0.281,0.953
2025-08-02T16:45:33.684430,0,68070,0,0,0.0,0.0,0.927,-0.297,-0.14,-0.867,-1.953,2.188,1.062
2025-08-02T16:45:33.714424,0,68120,0,0,0.0,0.0,0.93,-0.313,-0.14,-0.865,-1.734,0.719,0.188
2025-08-02T16:45:33.774554,0,68170,0,0,0.0,0.0,0.92,-0.295,-0.135,-0.861,-0.812,0.469,-0.266
2025-08-02T16:45:33.819530,0,68220,0,0,0.0,0.0,0.928,-0.303,-0.138,-0.865,-1.672,0.531,0.328
2025-08-02T16:45:33.864408,0,68270,0,0,0.0,0.0,0.926,-0.304,-0.139,-0.863,-2.109,1.125,1.016
2025-08-02T16:45:33.909413,0,68320,0,0,0.0,0.0,0.929,-0.309,-0.139,-0.865,-1.875,0.094,0.5
2025-08-02T16:45:33.969542,0,68370,0,0,0.0,0.0,0.929,-0.302,-0.136,-0.868,-2.219,0.172,-0.094
2025-08-02T16:45:34.014536,0,68420,0,0,0.0,0.0,0.929,-0.307,-0.138,-0.865,-1.812,1.688,-0.156
2025-08-02T16:45:34.059433,0,68470,0,0,0.0,0.0,0.928,-0.299,-0.132,-0.868,-1.609,1.031,0.922
2025-08-02T16:45:34.119414,0,68520,0,0,0.0,0.0,0.924,-0.307,-0.135,-0.861,-0.656,0.0,0.578
2025-08-02T16:45:34.164561,0,68570,0,0,0.0,0.0,0.925,-0.306,-0.14,-0.862,-0.125,-1.891,-0.547
2025-08-02T16:45:34.209544,0,68620,0,0,0.0,0.0,0.925,-0.307,-0.135,-0.863,-0.438,1.156,-0.172
2025-08-02T16:45:34.269446,0,68670,0,0,0.0,0.0,0.924,-0.305,-0.136,-0.862,-0.734,0.922,0.781
2025-08-02T16:45:34.314544,0,68720,0,0,0.0,0.0,0.929,-0.305,-0.14,-0.866,-2.016,3.031,-0.328
2025-08-02T16:45:34.359566,0,68770,0,0,0.0,0.0,0.932,-0.303,-0.141,-0.87,-1.359,-0.094,-0.406
2025-08-02T16:45:34.419423,0,68820,0,0,0.0,0.0,0.93,-0.308,-0.135,-0.866,-1.406,1.297,0.0
2025-08-02T16:45:34.464437,0,68870,0,0,0.0,0.0,0.928,-0.304,-0.142,-0.865,-1.234,1.781,0.234
2025-08-02T16:45:34.509533,0,68920,0,0,0.0,0.0,0.922,-0.302,-0.138,-0.861,-0.531,1.906,-0.078
2025-08-02T16:45:34.569436,0,68970,0,0,0.0,0.0,0.925,-0.304,-0.141,-0.862,-0.469,1.547,0.406
2025-08-02T16:45:34.614544,0,69020,0,0,0.0,0.0,0.923,-0.304,-0.14,-0.86,-0.656,0.609,-0.719
2025-08-02T16:45:34.659613,0,69070,0,0,0.0,0.0,0.92,-0.294,-0.138,-0.861,-0.969,1.922,-0.531
2025-08-02T16:45:34.719484,0,69120,0,0,0.0,0.0,0.928,-0.309,-0.142,-0.863,-0.281,1.594,0.406
2025-08-02T16:45:34.764589,0,69170,0,0,0.0,0.0,0.93,-0.3,-0.144,-0.868,-0.797,-1.188,-0.297
2025-08-02T16:45:34.809576,0,69220,0,0,0.0,0.0,0.93,-0.306,-0.138,-0.867,-0.688,1.469,-0.375
2025-08-02T16:45:34.869453,0,69270,0,0,0.0,0.0,0.929,-0.3,-0.147,-0.867,-0.594,1.469,0.172
2025-08-02T16:45:34.914456,0,69320,0,0,0.0,0.0,0.928,-0.306,-0.145,-0.865,-1.344,2.062,1.141
2025-08-02T16:45:34.959461,0,69370,0,0,0.0,0.0,0.923,-0.305,-0.14,-0.86,-0.328,1.016,0.625
2025-08-02T16:45:35.019450,0,69420,0,0,0.0,0.0,0.923,-0.303,-0.142,-0.861,-1.219,1.406,0.234
2025-08-02T16:45:35.064483,0,69470,0,0,0.0,0.0,0.923,-0.302,-0.144,-0.861,-1.672,1.625,0.672
2025-08-02T16:45:35.109572,0,69520,0,0,0.0,0.0,0.929,-0.307,-0.144,-0.865,-1.562,1.812,1.094
2025-08-02T16:45:35.169616,0,69570,0,0,0.0,0.0,0.928,-0.302,-0.144,-0.865,-2.688,1.141,1.531
2025-08-02T16:45:35.214587,0,69620,0,0,0.0,0.0,0.929,-0.306,-0.139,-0.866,-3.438,1.078,0.844
2025-08-02T16:45:35.259590,0,69670,0,0,0.0,0.0,0.925,-0.292,-0.139,-0.866,-2.297,1.281,0.328
2025-08-02T16:45:35.319591,0,69720,0,0,0.0,0.0,0.933,-0.314,-0.143,-0.867,-1.547,0.078,1.016
2025-08-02T16:45:35.364701,0,69770,0,0,0.0,0.0,0.93,-0.301,-0.141,-0.869,-0.5,0.125,-0.531
2025-08-02T16:45:35.409659,0,69820,0,0,0.0,0.0,0.922,-0.304,-0.141,-0.859,-0.031,0.656,0.438
2025-08-02T16:45:35.469720,0,69870,0,0,0.0,0.0,0.924,-0.304,-0.14,-0.861,-1.047,-0.531,0.328
2025-08-02T16:45:35.514600,0,69920,0,0,0.0,0.0,0.923,-0.303,-0.145,-0.86,-2.031,0.562,0.875
2025-08-02T16:45:35.559676,0,69970,0,0,0.0,0.0,0.927,-0.299,-0.14,-0.866,-1.281,0.609,-1.266
2025-08-02T16:45:35.619689,0,70020,0,0,0.0,0.0,0.925,-0.303,-0.142,-0.862,-0.688,0.359,-0.844
2025-08-02T16:45:35.664585,0,70070,0,0,0.0,0.0,0.929,-0.302,-0.145,-0.867,-2.297,1.062,0.141
2025-08-02T16:45:35.709690,0,70120,0,0,0.0,0.0,0.932,-0.304,-0.148,-0.869,-1.812,1.172,1.047
2025-08-02T16:45:35.769611,0,70170,0,0,0.0,0.0,0.925,-0.303,-0.143,-0.862,-2.219,1.25,1.016
2025-08-02T16:45:35.814568,0,70220,0,0,0.0,0.0,0.925,-0.305,-0.144,-0.862,-2.359,2.5,0.781
2025-08-02T16:45:35.859582,0,70270,0,0,0.0,0.0,0.923,-0.305,-0.144,-0.859,-3.531,1.047,1.953
2025-08-02T16:45:35.919555,0,70320,0,0,0.0,0.0,0.926,-0.305,-0.138,-0.863,-3.594,0.969,1.844
2025-08-02T16:45:35.964721,0,70370,0,0,0.0,0.0,0.923,-0.306,-0.143,-0.859,-2.797,0.719,-0.312
2025-08-02T16:45:36.009568,0,70420,0,0,0.0,0.0,0.925,-0.302,-0.141,-0.863,-3.156,2.109,0.078
2025-08-02T16:45:36.069585,0,70470,0,0,0.0,0.0,0.931,-0.303,-0.134,-0.87,-3.359,2.406,2.109
2025-08-02T16:45:36.114570,0,70520,0,0,0.0,0.0,0.931,-0.303,-0.143,-0.868,-3.453,0.406,1.281
2025-08-02T16:45:36.159705,0,70570,0,0,0.0,0.0,0.929,-0.305,-0.137,-0.866,-2.156,0.75,-0.203
2025-08-02T16:45:36.219574,0,70620,0,0,0.0,0.0,0.923,-0.3,-0.138,-0.862,-1.578,2.219,0.094
2025-08-02T16:45:36.264589,0,70670,0,0,0.0,0.0,0.928,-0.306,-0.137,-0.865,-2.672,1.078,1.078
2025-08-02T16:45:36.309565,0,70720,0,0,0.0,0.0,0.921,-0.297,-0.14,-0.86,-1.875,1.797,0.094
2025-08-02T16:45:36.369715,0,70770,0,0,0.0,0.0,0.93,-0.31,-0.139,-0.866,-2.031,-0.188,-0.094
2025-08-02T16:45:36.414676,0,70820,0,0,0.0,0.0,0.926,-0.296,-0.138,-0.867,-2.312,1.188,-0.188
2025-08-02T16:45:36.459697,0,70870,0,0,0.0,0.0,0.931,-0.305,-0.136,-0.869,-3.203,2.344,-0.125
2025-08-02T16:45:36.519674,0,70920,0,0,0.0,0.0,0.93,-0.298,-0.138,-0.87,-2.062,-1.297,0.812
2025-08-02T16:45:36.564583,0,70970,0,0,0.0,0.0,0.929,-0.302,-0.137,-0.868,-0.969,1.75,0.109
2025-08-02T16:45:36.609689,0,71020,0,0,0.0,0.0,0.925,-0.301,-0.134,-0.864,-1.875,-0.484,-0.734
2025-08-02T16:45:36.669590,0,71070,0,0,0.0,0.0,0.927,-0.302,-0.134,-0.866,-2.078,2.156,1.375
2025-08-02T16:45:36.714696,0,71120,0,0,0.0,0.0,0.925,-0.307,-0.136,-0.862,-3.031,0.562,1.641
2025-08-02T16:45:36.759733,0,71170,0,0,0.0,0.0,0.926,-0.299,-0.136,-0.866,-2.281,0.609,-0.281
2025-08-02T16:45:36.819694,0,71220,0,0,0.0,0.0,0.93,-0.304,-0.137,-0.868,-1.781,2.453,-1.141
2025-08-02T16:45:36.864588,0,71270,0,0,0.0,0.0,0.93,-0.301,-0.134,-0.869,-2.609,1.734,0.047
2025-08-02T16:45:36.909604,0,71320,0,0,0.0,0.0,0.938,-0.303,-0.139,-0.877,-2.5,1.859,1.891
2025-08-02T16:45:36.969604,0,71370,0,0,0.0,0.0,0.928,-0.301,-0.134,-0.868,-1.359,0.562,0.5
2025-08-02T16:45:37.014686,0,71420,0,0,0.0,0.0,0.931,-0.303,-0.132,-0.87,-1.234,2.344,-0.109
2025-08-02T16:45:37.059589,0,71470,0,0,0.0,0.0,0.925,-0.303,-0.135,-0.864,-1.859,0.547,0.703
2025-08-02T16:45:37.119610,0,71520,0,0,0.0,0.0,0.93,-0.3,-0.133,-0.87,-1.141,1.625,0.672
2025-08-02T16:45:37.164628,0,71570,0,0,0.0,0.0,0.923,-0.3,-0.133,-0.863,-1.484,0.641,0.453
2025-08-02T16:45:37.209703,0,71620,0,0,0.0,0.0,0.924,-0.302,-0.137,-0.863,-0.938,0.562,-0.875
2025-08-02T16:45:37.269622,0,71670,0,0,0.0,0.0,0.932,-0.304,-0.134,-0.871,-1.906,1.109,0.094
2025-08-02T16:45:37.314713,0,71720,0,0,0.0,0.0,0.93,-0.3,-0.137,-0.869,-3.141,-0.297,-0.125
2025-08-02T16:45:37.360021,0,71770,0,0,0.0,0.0,0.927,-0.3,-0.13,-0.867,-1.172,1.594,0.562
2025-08-02T16:45:37.419700,0,71820,0,0,0.0,0.0,0.929,-0.303,-0.133,-0.867,-1.016,2.172,-0.172
2025-08-02T16:45:37.464710,0,71870,0,0,0.0,0.0,0.926,-0.299,-0.135,-0.866,-0.406,1.797,-0.891
2025-08-02T16:45:37.509575,0,71920,0,0,0.0,0.0,0.923,-0.295,-0.138,-0.863,-0.469,3.188,0.359
2025-08-02T16:45:37.569595,0,71970,0,0,0.0,0.0,0.925,-0.306,-0.136,-0.862,-1.094,0.469,1.203
2025-08-02T16:45:37.614577,0,72020,0,0,0.0,0.0,0.925,-0.295,-0.135,-0.866,-2.719,2.078,1.688
2025-08-02T16:45:37.659596,0,72070,0,0,0.0,0.0,0.927,-0.303,-0.134,-0.866,-1.766,0.781,0.562
2025-08-02T16:45:37.719696,0,72120,0,0,0.0,0.0,0.929,-0.302,-0.132,-0.869,-2.438,2.688,0.016
2025-08-02T16:45:37.764758,0,72170,0,0,0.0,0.0,0.933,-0.294,-0.134,-0.875,-2.766,-0.016,0.016
2025-08-02T16:45:37.809599,0,72220,0,0,0.0,0.0,0.933,-0.302,-0.134,-0.873,-1.234,2.234,0.328
2025-08-02T16:45:37.869737,0,72270,0,0,0.0,0.0,0.929,-0.305,-0.137,-0.866,-0.641,-0.828,-0.922
2025-08-02T16:45:37.914586,0,72320,0,0,0.0,0.0,0.929,-0.297,-0.134,-0.87,-0.688,3.078,0.281
2025-08-02T16:45:37.959656,0,72370,0,0,0.0,0.0,0.922,-0.304,-0.135,-0.86,-1.375,0.844,0.703
2025-08-02T16:45:38.019598,0,72420,0,0,0.0,0.0,0.923,-0.296,-0.133,-0.864,-1.656,1.609,1.516
2025-08-02T16:45:38.064721,0,72470,0,0,0.0,0.0,0.927,-0.299,-0.135,-0.867,-1.031,0.641,-0.406
2025-08-02T16:45:38.109592,0,72520,0,0,0.0,0.0,0.93,-0.298,-0.135,-0.871,-1.969,1.75,0.422
2025-08-02T16:45:38.169607,0,72570,0,0,0.0,0.0,0.932,-0.303,-0.133,-0.871,-1.656,0.281,1.422
2025-08-02T16:45:38.214593,0,72620,0,0,0.0,0.0,0.929,-0.298,-0.136,-0.869,-1.891,0.844,1.891
2025-08-02T16:45:38.259615,0,72670,0,0,0.0,0.0,0.925,-0.295,-0.134,-0.867,-1.703,0.453,1.578
2025-08-02T16:45:38.319578,0,72720,0,0,0.0,0.0,0.922,-0.299,-0.131,-0.862,-0.906,1.766,0.594
2025-08-02T16:45:38.364607,0,72770,0,0,0.0,0.0,0.925,-0.301,-0.134,-0.865,-1.281,0.031,0.422
2025-08-02T16:45:38.409586,0,72820,0,0,0.0,0.0,0.925,-0.299,-0.136,-0.865,-2.844,2.625,0.375
2025-08-02T16:45:38.469725,0,72870,0,0,0.0,0.0,0.931,-0.302,-0.137,-0.87,-2.172,-1.547,0.266
2025-08-02T16:45:38.514703,0,72920,0,0,0.0,0.0,0.926,-0.297,-0.136,-0.867,-1.844,1.109,-0.281
2025-08-02T16:45:38.559722,0,72970,0,0,0.0,0.0,0.932,-0.302,-0.127,-0.872,-2.75,-2.062,0.969
2025-08-02T16:45:38.619584,0,73020,0,0,0.0,0.0,0.929,-0.293,-0.135,-0.871,-3.203,3.625,1.016
2025-08-02T16:45:38.664603,0,73070,0,0,0.0,0.0,0.932,-0.311,-0.133,-0.868,-2.797,0.766,1.453
2025-08-02T16:45:38.709678,0,73120,0,0,0.0,0.0,0.927,-0.293,-0.13,-0.869,-2.125,1.719,0.062
2025-08-02T16:45:38.769676,0,73170,0,0,0.0,0.0,0.931,-0.302,-0.132,-0.871,-1.516,0.266,0.141
2025-08-02T16:45:38.814730,0,73220,0,0,0.0,0.0,0.925,-0.297,-0.13,-0.866,-2.797,2.234,-0.156
2025-08-02T16:45:38.859623,0,73270,0,0,0.0,0.0,0.925,-0.304,-0.134,-0.864,-2.547,1.406,1.703
2025-08-02T16:45:38.919712,0,73320,0,0,0.0,0.0,0.932,-0.298,-0.131,-0.873,-1.766,-0.109,0.734
2025-08-02T16:45:38.964733,0,73370,0,0,0.0,0.0,0.935,-0.3,-0.131,-0.876,-2.422,2.547,-0.641
2025-08-02T16:45:39.009706,0,73420,0,0,0.0,0.0,0.938,-0.303,-0.132,-0.877,-2.562,1.375,-0.438
2025-08-02T16:45:39.069614,0,73470,0,0,0.0,0.0,0.932,-0.293,-0.132,-0.874,-3.078,2.016,0.359
2025-08-02T16:45:39.114602,0,73520,0,0,0.0,0.0,0.927,-0.308,-0.127,-0.865,-3.0,0.656,1.781
2025-08-02T16:45:39.159621,0,73570,0,0,0.0,0.0,0.923,-0.293,-0.131,-0.866,-1.812,1.844,0.0
2025-08-02T16:45:39.219604,0,73620,0,0,0.0,0.0,0.926,-0.302,-0.128,-0.866,-2.156,1.875,0.281
2025-08-02T16:45:39.264615,0,73670,0,0,0.0,0.0,0.925,-0.294,-0.127,-0.868,-3.234,0.766,0.375
2025-08-02T16:45:39.309589,0,73720,0,0,0.0,0.0,0.929,-0.302,-0.126,-0.87,-3.125,1.953,0.781
2025-08-02T16:45:39.369730,0,73770,0,0,0.0,0.0,0.93,-0.296,-0.126,-0.873,-2.328,1.125,-0.516
2025-08-02T16:45:39.414714,0,73820,0,0,0.0,0.0,0.928,-0.3,-0.125,-0.869,-1.656,1.141,-0.688
2025-08-02T16:45:39.459789,0,73870,0,0,0.0,0.0,0.936,-0.295,-0.128,-0.879,-3.406,-0.328,-0.047
2025-08-02T16:45:39.519606,0,73920,0,0,0.0,0.0,0.93,-0.297,-0.129,-0.872,-1.906,1.5,0.391
2025-08-02T16:45:39.564610,0,73970,0,0,0.0,0.0,0.926,-0.29,-0.127,-0.87,-1.562,1.484,0.328
2025-08-02T16:45:39.609632,0,74020,0,0,0.0,0.0,0.926,-0.302,-0.128,-0.866,-1.375,1.234,0.703
2025-08-02T16:45:39.669739,0,74070,0,0,0.0,0.0,0.925,-0.294,-0.126,-0.868,-1.688,-0.594,0.359
2025-08-02T16:45:39.714630,0,74120,0,0,0.0,0.0,0.927,-0.291,-0.126,-0.871,-2.734,4.578,1.031
2025-08-02T16:45:39.759721,0,74170,0,0,0.0,0.0,0.936,-0.306,-0.128,-0.875,-2.688,-0.297,1.5
2025-08-02T16:45:39.819735,0,74220,0,0,0.0,0.0,0.926,-0.289,-0.129,-0.87,-0.703,-0.078,0.453
2025-08-02T16:45:39.864736,0,74270,0,0,0.0,0.0,0.926,-0.298,-0.122,-0.868,-1.281,1.578,-0.203
2025-08-02T16:45:39.909630,0,74320,0,0,0.0,0.0,0.933,-0.294,-0.125,-0.877,-2.547,1.984,1.094
2025-08-02T16:45:39.969604,0,74370,0,0,0.0,0.0,0.929,-0.301,-0.124,-0.871,-2.281,1.172,1.359
2025-08-02T16:45:40.014624,0,74420,0,0,0.0,0.0,0.927,-0.298,-0.124,-0.87,-0.75,0.547,0.172
2025-08-02T16:45:40.059726,0,74470,0,0,0.0,0.0,0.925,-0.294,-0.125,-0.868,-1.406,1.953,-0.781
2025-08-02T16:45:40.119621,0,74520,0,0,0.0,0.0,0.927,-0.3,-0.128,-0.868,-2.359,0.688,0.609
2025-08-02T16:45:40.164619,0,74570,0,0,0.0,0.0,0.931,-0.298,-0.128,-0.872,-2.766,1.141,0.453
2025-08-02T16:45:40.224630,0,74620,0,0,0.0,0.0,0.932,-0.289,-0.124,-0.877,-1.406,0.812,0.516
2025-08-02T16:45:40.269742,0,74670,0,0,0.0,0.0,0.933,-0.304,-0.127,-0.873,-2.109,1.625,-0.328
2025-08-02T16:45:40.314757,0,74720,0,0,0.0,0.0,0.931,-0.292,-0.126,-0.875,-2.531,-0.109,0.047
2025-08-02T16:45:40.359639,0,74770,0,0,0.0,0.0,0.93,-0.295,-0.123,-0.873,-3.219,1.031,1.391
2025-08-02T16:45:40.434631,0,74820,0,0,0.0,0.0,0.931,-0.302,-0.122,-0.872,-2.297,2.078,0.594
2025-08-02T16:45:40.464758,0,74870,0,0,0.0,0.0,0.929,-0.303,-0.127,-0.869,-1.234,-1.219,-0.781
2025-08-02T16:45:40.509630,0,74920,0,0,0.0,0.0,0.927,-0.291,-0.12,-0.872,-2.031,1.734,0.328
2025-08-02T16:45:40.569626,0,74970,0,0,0.0,0.0,0.932,-0.302,-0.121,-0.874,-2.516,1.812,0.422
2025-08-02T16:45:40.614625,0,75020,0,0,0.0,0.0,0.926,-0.291,-0.124,-0.871,-2.531,0.875,0.859
2025-08-02T16:45:40.659744,0,75070,0,0,0.0,0.0,0.934,-0.297,-0.121,-0.877,-1.828,0.922,-0.156
2025-08-02T16:45:40.719800,0,75120,0,0,0.0,0.0,0.93,-0.292,-0.125,-0.874,-1.75,0.25,-1.016
2025-08-02T16:45:40.764770,0,75170,0,0,0.0,0.0,0.931,-0.299,-0.122,-0.873,-1.297,2.594,-0.609
2025-08-02T16:45:40.809638,0,75220,0,0,0.0,0.0,0.927,-0.296,-0.125,-0.87,-0.516,1.125,0.281
2025-08-02T16:45:40.869634,0,75270,0,0,0.0,0.0,0.927,-0.298,-0.125,-0.869,-0.766,0.875,0.672
2025-08-02T16:45:40.914741,0,75320,0,0,0.0,0.0,0.924,-0.292,-0.125,-0.868,-1.422,-0.094,0.234
2025-08-02T16:45:40.959621,0,75370,0,0,0.0,0.0,0.927,-0.298,-0.123,-0.869,-2.531,2.219,0.062
2025-08-02T16:45:41.019734,0,75420,0,0,0.0,0.0,0.93,-0.291,-0.123,-0.875,-2.547,-0.141,0.75
2025-08-02T16:45:41.064618,0,75470,0,0,0.0,0.0,0.929,-0.297,-0.122,-0.872,-1.469,1.516,0.438
2025-08-02T16:45:41.109738,0,75520,0,0,0.0,0.0,0.928,-0.297,-0.124,-0.87,-1.5,1.062,-0.922
2025-08-02T16:45:41.169741,0,75570,0,0,0.0,0.0,0.93,-0.294,-0.122,-0.874,-1.109,1.172,-0.391
2025-08-02T16:45:41.214652,0,75620,0,0,0.0,0.0,0.924,-0.298,-0.123,-0.866,-1.703,1.047,2.031
2025-08-02T16:45:41.259635,0,75670,0,0,0.0,0.0,0.925,-0.298,-0.121,-0.867,-0.625,2.25,1.0
2025-08-02T16:45:41.319625,0,75720,0,0,0.0,0.0,0.925,-0.293,-0.122,-0.868,-1.391,1.844,0.844
2025-08-02T16:45:41.364626,0,75770,0,0,0.0,0.0,0.925,-0.297,-0.129,-0.866,-1.188,1.375,0.781
2025-08-02T16:45:41.409627,0,75820,0,0,0.0,0.0,0.926,-0.293,-0.123,-0.869,-2.156,1.328,1.141
2025-08-02T16:45:41.469628,0,75870,0,0,0.0,0.0,0.933,-0.3,-0.123,-0.875,-2.109,1.922,0.891
2025-08-02T16:45:41.514629,0,75920,0,0,0.0,0.0,0.933,-0.294,-0.125,-0.877,-1.438,0.75,1.219
2025-08-02T16:45:41.559646,0,75970,0,0,0.0,0.0,0.937,-0.297,-0.127,-0.88,-1.188,0.922,1.25
2025-08-02T16:45:41.619643,0,76020,0,0,0.0,0.0,0.928,-0.296,-0.121,-0.872,-2.094,1.469,0.594
2025-08-02T16:45:41.664741,0,76070,0,0,0.0,0.0,0.932,-0.296,-0.122,-0.875,-1.812,-0.219,1.375
2025-08-02T16:45:41.709655,0,76120,0,0,0.0,0.0,0.92,-0.283,-0.125,-0.866,-0.969,1.875,0.594
2025-08-02T16:45:41.769709,0,76170,0,0,0.0,0.0,0.934,-0.308,-0.124,-0.873,-2.031,1.797,0.312
2025-08-02T16:45:41.814776,0,76220,0,0,0.0,0.0,0.929,-0.287,-0.12,-0.875,-2.391,-0.25,0.984
2025-08-02T16:45:41.859630,0,76270,0,0,0.0,0.0,0.926,-0.296,-0.119,-0.87,-3.031,4.016,0.969
2025-08-02T16:45:41.919744,0,76320,0,0,0.0,0.0,0.931,-0.291,-0.121,-0.877,-2.203,-0.281,0.062
2025-08-02T16:45:41.964747,0,76370,0,0,0.0,0.0,0.935,-0.298,-0.118,-0.878,-1.672,2.328,-0.484
2025-08-02T16:45:42.009744,0,76420,0,0,0.0,0.0,0.931,-0.289,-0.12,-0.876,-2.062,0.938,-0.031
2025-08-02T16:45:42.069744,0,76470,0,0,0.0,0.0,0.931,-0.296,-0.125,-0.874,-1.734,2.359,-0.078
2025-08-02T16:45:42.114750,0,76520,0,0,0.0,0.0,0.93,-0.297,-0.12,-0.873,-2.188,-0.281,0.516
2025-08-02T16:45:42.159687,0,76570,0,0,0.0,0.0,0.925,-0.292,-0.117,-0.87,-2.031,1.844,0.438
2025-08-02T16:45:42.219769,0,76620,0,0,0.0,0.0,0.926,-0.293,-0.118,-0.871,-3.031,1.172,-0.734
2025-08-02T16:45:42.264761,0,76670,0,0,0.0,0.0,0.931,-0.286,-0.121,-0.878,-3.312,1.297,-0.062
2025-08-02T16:45:42.309639,0,76720,0,0,0.0,0.0,0.929,-0.3,-0.116,-0.872,-1.984,0.406,0.703
2025-08-02T16:45:42.369750,0,76770,0,0,0.0,0.0,0.932,-0.292,-0.117,-0.877,-2.391,0.688,-0.391
2025-08-02T16:45:42.414750,0,76820,0,0,0.0,0.0,0.93,-0.29,-0.119,-0.876,-2.312,1.625,-0.922
2025-08-02T16:45:42.459631,0,76870,0,0,0.0,0.0,0.936,-0.296,-0.123,-0.879,-2.344,0.734,0.984
2025-08-02T16:45:42.519656,0,76920,0,0,0.0,0.0,0.925,-0.29,-0.118,-0.871,-1.266,2.984,1.062
2025-08-02T16:45:42.564756,0,76970,0,0,0.0,0.0,0.936,-0.297,-0.115,-0.88,-2.406,1.375,-0.531
2025-08-02T16:45:42.609757,0,77020,0,0,0.0,0.0,0.926,-0.293,-0.118,-0.87,-1.859,-0.234,0.156
2025-08-02T16:45:42.669641,0,77070,0,0,0.0,0.0,0.924,-0.289,-0.118,-0.869,-1.844,1.125,1.234
2025-08-02T16:45:42.715110,0,77120,0,0,0.0,0.0,0.925,-0.294,-0.118,-0.869,-2.656,0.547,1.031
2025-08-02T16:45:42.759666,0,77170,0,0,0.0,0.0,0.929,-0.295,-0.112,-0.874,-1.875,0.641,0.344
2025-08-02T16:45:42.819781,0,77220,0,0,0.0,0.0,0.932,-0.29,-0.117,-0.878,-1.609,-0.719,0.453
2025-08-02T16:45:42.864648,0,77270,0,0,0.0,0.0,0.934,-0.288,-0.115,-0.881,-2.531,2.0,0.391
2025-08-02T16:45:42.909752,0,77320,0,0,0.0,0.0,0.93,-0.303,-0.117,-0.872,-1.812,-2.969,0.953
2025-08-02T16:45:42.969644,0,77370,0,0,0.0,0.0,0.929,-0.283,-0.117,-0.877,-0.703,1.547,0.016
2025-08-02T16:45:43.014656,0,77420,0,0,0.0,0.0,0.929,-0.299,-0.117,-0.872,-0.938,0.703,0.656
2025-08-02T16:45:43.059659,0,77470,0,0,0.0,0.0,0.927,-0.292,-0.116,-0.873,-2.031,1.297,0.922
2025-08-02T16:45:43.119659,0,77520,0,0,0.0,0.0,0.93,-0.293,-0.118,-0.875,-1.906,1.781,0.891
2025-08-02T16:45:43.164804,0,77570,0,0,0.0,0.0,0.932,-0.293,-0.117,-0.877,-1.969,0.75,-0.562
2025-08-02T16:45:43.209805,0,77620,0,0,0.0,0.0,0.942,-0.292,-0.119,-0.887,-2.062,-1.547,-0.984
2025-08-02T16:45:43.269790,0,77670,0,0,0.0,0.0,0.932,-0.288,-0.116,-0.878,-2.703,0.969,-0.031
2025-08-02T16:45:43.314685,0,77720,0,0,0.0,0.0,0.938,-0.301,-0.12,-0.88,-2.719,1.328,0.719
2025-08-02T16:45:43.359670,0,77770,0,0,0.0,0.0,0.931,-0.289,-0.117,-0.877,-1.188,0.266,1.141
2025-08-02T16:45:43.419780,0,77820,0,0,0.0,0.0,0.927,-0.292,-0.116,-0.872,-1.672,2.422,-0.719
2025-08-02T16:45:43.464662,0,77870,0,0,0.0,0.0,0.93,-0.295,-0.115,-0.874,-3.062,2.75,0.125
2025-08-02T16:45:43.509780,0,77920,0,0,0.0,0.0,0.93,-0.293,-0.117,-0.875,-2.188,-0.094,1.172
2025-08-02T16:45:43.569780,0,77970,0,0,0.0,0.0,0.931,-0.294,-0.115,-0.876,-1.766,1.922,-0.203
2025-08-02T16:45:43.614781,0,78020,0,0,0.0,0.0,0.931,-0.289,-0.113,-0.877,-2.609,0.516,-0.859
2025-08-02T16:45:43.659666,0,78070,0,0,0.0,0.0,0.932,-0.293,-0.116,-0.877,-2.766,3.0,0.172
2025-08-02T16:45:43.719903,0,78120,0,0,0.0,0.0,0.935,-0.297,-0.117,-0.879,-2.031,1.094,-0.016
2025-08-02T16:45:43.764703,0,78170,0,0,0.0,0.0,0.932,-0.29,-0.111,-0.879,-1.219,0.953,0.172
2025-08-02T16:45:43.809806,0,78220,0,0,0.0,0.0,0.928,-0.294,-0.119,-0.872,-0.938,-0.203,-0.234
2025-08-02T16:45:43.869781,0,78270,0,0,0.0,0.0,0.923,-0.285,-0.117,-0.87,-1.672,1.953,-0.125
2025-08-02T16:45:43.914768,0,78320,0,0,0.0,0.0,0.928,-0.297,-0.115,-0.872,-1.297,-0.391,1.219
2025-08-02T16:45:43.959659,0,78370,0,0,0.0,0.0,0.932,-0.288,-0.116,-0.879,-0.938,0.375,0.219
2025-08-02T16:45:44.019789,0,78420,0,0,0.0,0.0,0.932,-0.297,-0.117,-0.875,-2.25,1.172,-1.359
2025-08-02T16:45:44.065114,0,78470,0,0,0.0,0.0,0.929,-0.29,-0.119,-0.874,-1.844,0.5,-0.562
2025-08-02T16:45:44.109804,0,78520,0,0,0.0,0.0,0.927,-0.291,-0.115,-0.872,-2.188,-0.078,1.453
2025-08-02T16:45:44.169782,0,78570,0,0,0.0,0.0,0.93,-0.291,-0.117,-0.876,-1.422,-0.031,0.484
2025-08-02T16:45:44.214805,0,78620,0,0,0.0,0.0,0.933,-0.299,-0.119,-0.876,-1.562,0.125,-0.422
2025-08-02T16:45:44.259789,0,78670,0,0,0.0,0.0,0.931,-0.289,-0.116,-0.877,-1.469,0.531,-0.562
2025-08-02T16:45:44.319664,0,78720,0,0,0.0,0.0,0.929,-0.296,-0.116,-0.873,-2.078,2.781,1.016
2025-08-02T16:45:44.364771,0,78770,0,0,0.0,0.0,0.928,-0.291,-0.116,-0.874,-1.469,-0.984,0.641
2025-08-02T16:45:44.409656,0,78820,0,0,0.0,0.0,0.932,-0.291,-0.119,-0.877,-1.219,1.078,0.328
2025-08-02T16:45:44.469773,0,78870,0,0,0.0,0.0,0.933,-0.297,-0.118,-0.876,-1.984,-0.109,0.25
2025-08-02T16:45:44.514660,0,78920,0,0,0.0,0.0,0.932,-0.289,-0.117,-0.879,-2.125,0.25,1.312
2025-08-02T16:45:44.559658,0,78970,0,0,0.0,0.0,0.935,-0.296,-0.117,-0.879,-2.109,2.609,1.562
2025-08-02T16:45:44.619767,0,79020,0,0,0.0,0.0,0.932,-0.296,-0.116,-0.876,-1.5,-0.406,1.094
2025-08-02T16:45:44.664656,0,79070,0,0,0.0,0.0,0.927,-0.294,-0.112,-0.872,-2.0,2.312,1.266
2025-08-02T16:45:44.709790,0,79120,0,0,0.0,0.0,0.927,-0.291,-0.116,-0.872,-2.422,1.703,0.75
2025-08-02T16:45:44.770202,0,79170,0,0,0.0,0.0,0.928,-0.296,-0.114,-0.872,-1.812,0.891,0.984
2025-08-02T16:45:44.814824,0,79220,0,0,0.0,0.0,0.932,-0.29,-0.12,-0.877,-1.359,0.094,0.172
2025-08-02T16:45:44.859982,0,79270,0,0,0.0,0.0,0.932,-0.291,-0.111,-0.879,-1.734,0.859,0.219
2025-08-02T16:45:44.919745,0,79320,0,0,0.0,0.0,0.932,-0.293,-0.116,-0.877,-3.156,2.469,0.172
2025-08-02T16:45:44.964623,0,79370,0,0,0.0,0.0,0.933,-0.297,-0.115,-0.877,-2.984,1.5,0.203
2025-08-02T16:45:45.009877,0,79420,0,0,0.0,0.0,0.934,-0.29,-0.112,-0.88,-1.969,0.5,-0.312
2025-08-02T16:45:45.069894,0,79470,0,0,0.0,0.0,0.932,-0.291,-0.117,-0.878,-2.031,1.625,-0.547
2025-08-02T16:45:45.114638,0,79520,0,0,0.0,0.0,0.931,-0.296,-0.113,-0.875,-2.281,2.469,0.844
2025-08-02T16:45:45.159578,0,79570,0,0,0.0,0.0,0.927,-0.295,-0.112,-0.872,-1.641,2.109,1.344
2025-08-02T16:45:45.219575,0,79620,0,0,0.0,0.0,0.941,-0.289,-0.112,-0.889,-2.594,1.75,0.734
2025-08-02T16:45:45.264684,0,79670,0,0,0.0,0.0,0.928,-0.289,-0.115,-0.874,-2.438,2.094,-0.859
2025-08-02T16:45:45.309685,0,79720,0,0,0.0,0.0,0.931,-0.299,-0.111,-0.875,-2.281,2.062,-0.016
2025-08-02T16:45:45.369675,0,79770,0,0,0.0,0.0,0.933,-0.285,-0.111,-0.882,-3.094,-0.031,0.0
2025-08-02T16:45:45.414675,0,79820,0,0,0.0,0.0,0.936,-0.292,-0.115,-0.881,-2.062,1.891,-0.031
2025-08-02T16:45:45.459673,0,79870,0,0,0.0,0.0,0.931,-0.291,-0.114,-0.877,-1.062,1.25,-1.266
2025-08-02T16:45:45.519559,0,79920,0,0,0.0,0.0,0.928,-0.293,-0.112,-0.874,-1.422,1.844,0.422
2025-08-02T16:45:45.564563,0,79970,0,0,0.0,0.0,0.929,-0.293,-0.112,-0.874,-1.891,2.047,1.078
2025-08-02T16:45:45.609674,0,80020,0,0,0.0,0.0,0.928,-0.292,-0.11,-0.874,-1.719,2.141,-0.031
2025-08-02T16:45:45.669676,0,80070,0,0,0.0,0.0,0.926,-0.288,-0.113,-0.873,-1.5,0.781,-0.906
2025-08-02T16:45:45.714672,0,80120,0,0,0.0,0.0,0.93,-0.291,-0.115,-0.876,-2.953,0.547,0.672
2025-08-02T16:45:45.759601,0,80170,0,0,0.0,0.0,0.93,-0.284,-0.11,-0.879,-3.203,2.625,1.109
2025-08-02T16:45:45.819579,0,80220,0,0,0.0,0.0,0.936,-0.295,-0.11,-0.882,-3.047,1.359,1.047
2025-08-02T16:45:45.864565,0,80270,0,0,0.0,0.0,0.928,-0.282,-0.113,-0.877,-2.266,0.891,0.688
2025-08-02T16:45:45.909676,0,80320,0,0,0.0,0.0,0.935,-0.292,-0.109,-0.881,-2.453,1.375,-0.078
2025-08-02T16:45:45.969565,0,80370,0,0,0.0,0.0,0.926,-0.275,-0.11,-0.877,-2.391,1.297,0.703
2025-08-02T16:45:46.014562,0,80420,0,0,0.0,0.0,0.935,-0.294,-0.11,-0.88,-2.109,0.797,1.594
2025-08-02T16:45:46.060177,0,80470,0,0,0.0,0.0,0.931,-0.292,-0.113,-0.877,-0.109,-1.703,-0.812
2025-08-02T16:45:46.119885,0,80520,0,0,0.0,0.0,0.93,-0.285,-0.107,-0.878,-1.0,0.859,-0.203
2025-08-02T16:45:46.164643,0,80570,0,0,0.0,0.0,0.934,-0.301,-0.111,-0.877,-2.125,0.844,0.203
2025-08-02T16:45:46.209714,0,80620,0,0,0.0,0.0,0.931,-0.287,-0.11,-0.878,-0.891,-0.047,0.156
2025-08-02T16:45:46.269717,0,80670,0,0,0.0,0.0,0.935,-0.29,-0.109,-0.882,-0.234,-0.5,-1.156
2025-08-02T16:45:46.329691,0,80720,0,0,0.0,0.0,0.935,-0.288,-0.114,-0.883,-1.359,0.344,-0.938
2025-08-02T16:45:46.359573,0,80770,0,0,0.0,0.0,0.934,-0.287,-0.115,-0.881,-0.75,0.422,0.094
2025-08-02T16:45:46.419581,0,80820,0,0,0.0,0.0,0.933,-0.292,-0.113,-0.879,-1.188,1.766,1.031
2025-08-02T16:45:46.464687,0,80870,0,0,0.0,0.0,0.928,-0.292,-0.11,-0.874,-1.609,-0.219,0.562
2025-08-02T16:45:46.509690,0,80920,0,0,0.0,0.0,0.927,-0.293,-0.113,-0.872,-1.953,1.484,-0.062
2025-08-02T16:45:46.569576,0,80970,0,0,0.0,0.0,0.926,-0.288,-0.112,-0.873,-2.688,1.078,0.734
2025-08-02T16:45:46.614575,0,81020,0,0,0.0,0.0,0.93,-0.295,-0.109,-0.875,-2.359,0.078,1.156
2025-08-02T16:45:46.659685,0,81070,0,0,0.0,0.0,0.926,-0.281,-0.107,-0.875,-0.578,0.438,-0.578
2025-08-02T16:45:46.719672,0,81120,0,0,0.0,0.0,0.935,-0.295,-0.114,-0.88,-1.078,1.266,0.172
2025-08-02T16:45:46.764735,0,81170,0,0,0.0,0.0,0.931,-0.292,-0.107,-0.877,-1.844,-0.797,0.766
2025-08-02T16:45:46.809601,0,81220,0,0,0.0,0.0,0.933,-0.283,-0.111,-0.882,-1.109,0.281,0.438
2025-08-02T16:45:46.869707,0,81270,0,0,0.0,0.0,0.932,-0.293,-0.108,-0.878,-1.188,-0.062,-0.516
2025-08-02T16:45:46.914578,0,81320,0,0,0.0,0.0,0.931,-0.289,-0.111,-0.878,0.125,0.922,-1.344
2025-08-02T16:45:46.959576,0,81370,0,0,0.0,0.0,0.929,-0.297,-0.113,-0.873,0.062,3.781,-1.391
2025-08-02T16:45:47.019577,0,81420,0,0,0.0,0.0,0.926,-0.287,-0.11,-0.874,0.203,0.156,-0.859
2025-08-02T16:45:47.064959,0,81470,0,0,0.0,0.0,0.929,-0.297,-0.114,-0.873,0.078,0.453,-1.188
2025-08-02T16:45:47.109902,0,81520,0,0,0.0,0.0,0.929,-0.29,-0.117,-0.875,0.891,-0.609,-1.094
2025-08-02T16:45:47.169795,0,81570,0,0,0.0,0.0,0.934,-0.291,-0.11,-0.88,0.391,-0.453,-1.031
2025-08-02T16:45:47.229707,0,81620,0,0,0.0,0.0,0.93,-0.286,-0.113,-0.878,2.312,-3.0,-2.062
2025-08-02T16:45:47.259737,0,81670,0,0,0.0,0.0,0.933,-0.29,-0.117,-0.879,11.188,-15.953,-2.375
2025-08-02T16:45:47.319709,0,81720,0,0,0.0,0.0,0.906,-0.261,-0.125,-0.859,17.734,-40.312,-7.125
2025-08-02T16:45:47.364720,0,81770,0,0,0.0,0.0,0.927,-0.346,-0.141,-0.848,17.953,-79.0,-4.75
2025-08-02T16:45:47.409707,0,81820,0,0,0.0,0.0,0.931,-0.372,-0.15,-0.84,10.172,-36.516,-1.859
2025-08-02T16:45:47.469708,0,81870,0,0,0.0,0.0,0.913,-0.325,-0.148,-0.84,8.891,-53.547,-1.922
2025-08-02T16:45:47.514692,0,81920,0,0,0.0,0.0,0.935,-0.4,-0.15,-0.832,7.203,-63.375,-1.375
2025-08-02T16:45:47.559704,0,81970,0,0,0.0,0.0,0.944,-0.446,-0.163,-0.816,6.016,-31.469,-5.188
2025-08-02T16:45:47.619692,0,82020,0,0,0.0,0.0,0.914,-0.376,-0.166,-0.817,8.594,-37.406,-9.031
2025-08-02T16:45:47.664712,0,82070,0,0,0.0,0.0,0.947,-0.467,-0.165,-0.807,4.766,-14.094,-5.203
2025-08-02T16:45:47.709719,0,82120,0,0,0.0,0.0,0.912,-0.393,-0.171,-0.805,3.906,-9.359,-2.109
2025-08-02T16:45:47.769711,0,82170,0,0,0.0,0.0,0.925,-0.436,-0.173,-0.798,1.688,-14.234,0.484
2025-08-02T16:45:47.814699,0,82220,0,0,0.0,0.0,0.915,-0.421,-0.174,-0.794,3.984,-15.547,-2.172
2025-08-02T16:45:47.859710,0,82270,0,0,0.0,0.0,0.927,-0.451,-0.178,-0.79,4.094,-15.734,-4.188
2025-08-02T16:45:47.919697,0,82320,0,0,0.0,0.0,0.905,-0.419,-0.178,-0.782,6.797,-26.141,-7.609
2025-08-02T16:45:47.964709,0,82370,0,0,0.0,0.0,0.932,-0.484,-0.189,-0.773,7.984,-21.062,-7.281
2025-08-02T16:45:48.009696,0,82420,0,0,0.0,0.0,0.917,-0.447,-0.194,-0.777,6.594,-21.422,-7.062
2025-08-02T16:45:48.084978,0,82470,0,0,0.0,0.0,0.919,-0.471,-0.204,-0.762,6.828,-27.141,-4.047
2025-08-02T16:45:48.114635,0,82520,0,0,0.0,0.0,0.922,-0.47,-0.2,-0.768,4.969,0.078,-4.484
2025-08-02T16:45:48.159695,0,82570,0,0,0.0,0.0,0.916,-0.474,-0.202,-0.757,2.078,-11.328,0.891
2025-08-02T16:45:48.219589,0,82620,0,0,0.0,0.0,0.919,-0.479,-0.203,-0.758,1.5,-1.203,0.078
2025-08-02T16:45:48.264687,0,82670,0,0,0.0,0.0,0.909,-0.455,-0.2,-0.761,1.578,-5.422,-1.609
2025-08-02T16:45:48.309579,0,82720,0,0,0.0,0.0,0.921,-0.485,-0.198,-0.758,1.0,0.719,-1.703
2025-08-02T16:45:48.369575,0,82770,0,0,0.0,0.0,0.923,-0.495,-0.203,-0.751,-3.078,2.859,0.859
2025-08-02T16:45:48.414580,0,82820,0,0,0.0,0.0,0.908,-0.458,-0.211,-0.755,-2.984,1.078,3.078
2025-08-02T16:45:48.459590,0,82870,0,0,0.0,0.0,0.911,-0.47,-0.195,-0.756,-3.688,4.406,1.047
2025-08-02T16:45:48.519701,0,82920,0,0,0.0,0.0,0.931,-0.494,-0.195,-0.765,-4.219,-1.391,0.953
2025-08-02T16:45:48.564709,0,82970,0,0,0.0,0.0,0.918,-0.465,-0.205,-0.764,-1.844,-2.672,-0.031
2025-08-02T16:45:48.609701,0,83020,0,0,0.0,0.0,0.92,-0.474,-0.206,-0.761,-1.0,1.75,-1.812
2025-08-02T16:45:48.669715,0,83070,0,0,0.0,0.0,0.922,-0.488,-0.203,-0.755,-1.578,-5.266,-2.406
